,_id,choices,correct,correct_choice,expName,gameid,img_lure,img_sample,img_target,index,inputid,internal_node_id,iterationName,projName,response,rt,sessionID,stimulus,studyID,time_elapsed,trial_index,trial_type,userID
0,639b972c8c4fcd3ab5d82bb7,"['https://scenegraph-m2s-beth-aryan-class-project0.s3.amazonaws.com/11_2_4/random/4.png', 'https://scenegraph-m2s-beth-aryan-class-project0.s3.amazonaws.com/4_2_11/random/4.png']",True,1.0,class-project-0,4994-61393299-7f48-4fa5-8353-1a72c5bf644f,https://scenegraph-m2s-beth-aryan-class-project0.s3.amazonaws.com/11_2_4/random/4.png,https://scenegraph-m2s-beth-aryan-class-project0.s3.amazonaws.com/4_2_11/random/7.png,https://scenegraph-m2s-beth-aryan-class-project0.s3.amazonaws.com/4_2_11/random/4.png,0.0,,0.0-4.0,iter_0,scenegraph-m2s,1,2449,,https://scenegraph-m2s-beth-aryan-class-project0.s3.amazonaws.com/4_2_11/random/7.png,,20671,4,plugin-m2s-task,test
1,639b97308c4fcd3ab5d82bb8,"['https://scenegraph-m2s-beth-aryan-class-project0.s3.amazonaws.com/2_4_7/random/5.png', 'https://scenegraph-m2s-beth-aryan-class-project0.s3.amazonaws.com/2_7_4/line/7.png']",True,1.0,class-project-0,4994-61393299-7f48-4fa5-8353-1a72c5bf644f,https://scenegraph-m2s-beth-aryan-class-project0.s3.amazonaws.com/2_4_7/random/5.png,https://scenegraph-m2s-beth-aryan-class-project0.s3.amazonaws.com/2_7_4/line/1.png,https://scenegraph-m2s-beth-aryan-class-project0.s3.amazonaws.com/2_7_4/line/7.png,1.0,,0.0-5.0,iter_0,scenegraph-m2s,1,2557,,https://scenegraph-m2s-beth-aryan-class-project0.s3.amazonaws.com/2_7_4/line/1.png,,24247,5,plugin-m2s-task,test
2,639b97338c4fcd3ab5d82bb9,"['https://scenegraph-m2s-beth-aryan-class-project0.s3.amazonaws.com/12_5_11/nonequtriangle/9.png', 'https://scenegraph-m2s-beth-aryan-class-project0.s3.amazonaws.com/14_5_7/random/5.png']",True,0.0,class-project-0,4994-61393299-7f48-4fa5-8353-1a72c5bf644f,https://scenegraph-m2s-beth-aryan-class-project0.s3.amazonaws.com/14_5_7/random/5.png,https://scenegraph-m2s-beth-aryan-class-project0.s3.amazonaws.com/12_5_11/nonequtriangle/4.png,https://scenegraph-m2s-beth-aryan-class-project0.s3.amazonaws.com/12_5_11/nonequtriangle/9.png,2.0,,0.0-6.0,iter_0,scenegraph-m2s,0,1824,,https://scenegraph-m2s-beth-aryan-class-project0.s3.amazonaws.com/12_5_11/nonequtriangle/4.png,,27093,6,plugin-m2s-task,test
3,639b97378c4fcd3ab5d82bba,"['https://scenegraph-m2s-beth-aryan-class-project0.s3.amazonaws.com/13_2_11/random/3.png', 'https://scenegraph-m2s-beth-aryan-class-project0.s3.amazonaws.com/4_11_13/line/6.png']",True,0.0,class-project-0,4994-61393299-7f48-4fa5-8353-1a72c5bf644f,https://scenegraph-m2s-beth-aryan-class-project0.s3.amazonaws.com/4_11_13/line/6.png,https://scenegraph-m2s-beth-aryan-class-project0.s3.amazonaws.com/13_2_11/random/6.png,https://scenegraph-m2s-beth-aryan-class-project0.s3.amazonaws.com/13_2_11/random/3.png,3.0,,0.0-7.0,iter_0,scenegraph-m2s,0,2815,,https://scenegraph-m2s-beth-aryan-class-project0.s3.amazonaws.com/13_2_11/random/6.png,,30927,7,plugin-m2s-task,test
4,639b97398c4fcd3ab5d82bbb,"['https://scenegraph-m2s-beth-aryan-class-project0.s3.amazonaws.com/7_13_2/random/9.png', 'https://scenegraph-m2s-beth-aryan-class-project0.s3.amazonaws.com/12_18_10/random/6.png']",True,0.0,class-project-0,4994-61393299-7f48-4fa5-8353-1a72c5bf644f,https://scenegraph-m2s-beth-aryan-class-project0.s3.amazonaws.com/12_18_10/random/6.png,https://scenegraph-m2s-beth-aryan-class-project0.s3.amazonaws.com/7_13_2/random/4.png,https://scenegraph-m2s-beth-aryan-class-project0.s3.amazonaws.com/7_13_2/random/9.png,4.0,,0.0-8.0,iter_0,scenegraph-m2s,0,1295,,https://scenegraph-m2s-beth-aryan-class-project0.s3.amazonaws.com/7_13_2/random/4.png,,33234,8,plugin-m2s-task,test
5,639b97478c4fcd3ab5d82bbc,"['https://scenegraph-m2s-beth-aryan-class-project0.s3.amazonaws.com/7_4_10/nonequtriangle/7.png', 'https://scenegraph-m2s-beth-aryan-class-project0.s3.amazonaws.com/4_7_10/nonequtriangle/7.png']",True,1.0,class-project-0,4994-61393299-7f48-4fa5-8353-1a72c5bf644f,https://scenegraph-m2s-beth-aryan-class-project0.s3.amazonaws.com/7_4_10/nonequtriangle/7.png,https://scenegraph-m2s-beth-aryan-class-project0.s3.amazonaws.com/4_7_10/nonequtriangle/2.png,https://scenegraph-m2s-beth-aryan-class-project0.s3.amazonaws.com/4_7_10/nonequtriangle/7.png,5.0,,0.0-9.0,iter_0,scenegraph-m2s,1,13130,,https://scenegraph-m2s-beth-aryan-class-project0.s3.amazonaws.com/4_7_10/nonequtriangle/2.png,,47377,9,plugin-m2s-task,test
6,639b974c8c4fcd3ab5d82bbd,"['https://scenegraph-m2s-beth-aryan-class-project0.s3.amazonaws.com/12_14_10/random/1.png', 'https://scenegraph-m2s-beth-aryan-class-project0.s3.amazonaws.com/10_12_14/nonequtriangle/5.png']",True,0.0,class-project-0,4994-61393299-7f48-4fa5-8353-1a72c5bf644f,https://scenegraph-m2s-beth-aryan-class-project0.s3.amazonaws.com/10_12_14/nonequtriangle/5.png,https://scenegraph-m2s-beth-aryan-class-project0.s3.amazonaws.com/12_14_10/random/8.png,https://scenegraph-m2s-beth-aryan-class-project0.s3.amazonaws.com/12_14_10/random/1.png,6.0,,0.0-10.0,iter_0,scenegraph-m2s,0,3843,,https://scenegraph-m2s-beth-aryan-class-project0.s3.amazonaws.com/12_14_10/random/8.png,,52236,10,plugin-m2s-task,test
7,639b974f8c4fcd3ab5d82bbe,"['https://scenegraph-m2s-beth-aryan-class-project0.s3.amazonaws.com/5_7_4/nonequtriangle/8.png', 'https://scenegraph-m2s-beth-aryan-class-project0.s3.amazonaws.com/14_7_18/line/4.png']",True,1.0,class-project-0,4994-61393299-7f48-4fa5-8353-1a72c5bf644f,https://scenegraph-m2s-beth-aryan-class-project0.s3.amazonaws.com/5_7_4/nonequtriangle/8.png,https://scenegraph-m2s-beth-aryan-class-project0.s3.amazonaws.com/14_7_18/line/2.png,https://scenegraph-m2s-beth-aryan-class-project0.s3.amazonaws.com/14_7_18/line/4.png,7.0,,0.0-11.0,iter_0,scenegraph-m2s,1,2223,,https://scenegraph-m2s-beth-aryan-class-project0.s3.amazonaws.com/14_7_18/line/2.png,,55471,11,plugin-m2s-task,test
8,639b97538c4fcd3ab5d82bbf,"['https://scenegraph-m2s-beth-aryan-class-project0.s3.amazonaws.com/12_18_2/nonequtriangle/9.png', 'https://scenegraph-m2s-beth-aryan-class-project0.s3.amazonaws.com/10_2_13/line/7.png']",True,1.0,class-project-0,4994-61393299-7f48-4fa5-8353-1a72c5bf644f,https://scenegraph-m2s-beth-aryan-class-project0.s3.amazonaws.com/12_18_2/nonequtriangle/9.png,https://scenegraph-m2s-beth-aryan-class-project0.s3.amazonaws.com/10_2_13/line/5.png,https://scenegraph-m2s-beth-aryan-class-project0.s3.amazonaws.com/10_2_13/line/7.png,8.0,,0.0-12.0,iter_0,scenegraph-m2s,1,2925,,https://scenegraph-m2s-beth-aryan-class-project0.s3.amazonaws.com/10_2_13/line/5.png,,59409,12,plugin-m2s-task,test
9,639b975b8c4fcd3ab5d82bc0,"['https://scenegraph-m2s-beth-aryan-class-project0.s3.amazonaws.com/4_12_11/random/4.png', 'https://scenegraph-m2s-beth-aryan-class-project0.s3.amazonaws.com/12_4_11/random/3.png']",True,1.0,class-project-0,4994-61393299-7f48-4fa5-8353-1a72c5bf644f,https://scenegraph-m2s-beth-aryan-class-project0.s3.amazonaws.com/4_12_11/random/4.png,https://scenegraph-m2s-beth-aryan-class-project0.s3.amazonaws.com/12_4_11/random/6.png,https://scenegraph-m2s-beth-aryan-class-project0.s3.amazonaws.com/12_4_11/random/3.png,9.0,,0.0-13.0,iter_0,scenegraph-m2s,1,6571,,https://scenegraph-m2s-beth-aryan-class-project0.s3.amazonaws.com/12_4_11/random/6.png,,66993,13,plugin-m2s-task,test
10,639b975f8c4fcd3ab5d82bc1,"['https://scenegraph-m2s-beth-aryan-class-project0.s3.amazonaws.com/13_4_18/random/5.png', 'https://scenegraph-m2s-beth-aryan-class-project0.s3.amazonaws.com/4_18_13/nonequtriangle/3.png']",True,1.0,class-project-0,4994-61393299-7f48-4fa5-8353-1a72c5bf644f,https://scenegraph-m2s-beth-aryan-class-project0.s3.amazonaws.com/13_4_18/random/5.png,https://scenegraph-m2s-beth-aryan-class-project0.s3.amazonaws.com/4_18_13/nonequtriangle/2.png,https://scenegraph-m2s-beth-aryan-class-project0.s3.amazonaws.com/4_18_13/nonequtriangle/3.png,10.0,,0.0-14.0,iter_0,scenegraph-m2s,1,2697,,https://scenegraph-m2s-beth-aryan-class-project0.s3.amazonaws.com/4_18_13/nonequtriangle/2.png,,70704,14,plugin-m2s-task,test
11,639b97628c4fcd3ab5d82bc2,"['https://scenegraph-m2s-beth-aryan-class-project0.s3.amazonaws.com/7_4_14/nonequtriangle/8.png', 'https://scenegraph-m2s-beth-aryan-class-project0.s3.amazonaws.com/14_7_4/nonequtriangle/8.png']",True,1.0,class-project-0,4994-61393299-7f48-4fa5-8353-1a72c5bf644f,https://scenegraph-m2s-beth-aryan-class-project0.s3.amazonaws.com/7_4_14/nonequtriangle/8.png,https://scenegraph-m2s-beth-aryan-class-project0.s3.amazonaws.com/14_7_4/nonequtriangle/7.png,https://scenegraph-m2s-beth-aryan-class-project0.s3.amazonaws.com/14_7_4/nonequtriangle/8.png,11.0,,0.0-15.0,iter_0,scenegraph-m2s,1,2801,,https://scenegraph-m2s-beth-aryan-class-project0.s3.amazonaws.com/14_7_4/nonequtriangle/7.png,,74517,15,plugin-m2s-task,test
12,639b97658c4fcd3ab5d82bc3,"['https://scenegraph-m2s-beth-aryan-class-project0.s3.amazonaws.com/5_11_4/line/7.png', 'https://scenegraph-m2s-beth-aryan-class-project0.s3.amazonaws.com/5_11_4/nonequtriangle/5.png']",True,1.0,class-project-0,4994-61393299-7f48-4fa5-8353-1a72c5bf644f,https://scenegraph-m2s-beth-aryan-class-project0.s3.amazonaws.com/5_11_4/line/7.png,https://scenegraph-m2s-beth-aryan-class-project0.s3.amazonaws.com/5_11_4/nonequtriangle/6.png,https://scenegraph-m2s-beth-aryan-class-project0.s3.amazonaws.com/5_11_4/nonequtriangle/5.png,12.0,,0.0-16.0,iter_0,scenegraph-m2s,1,1748,,https://scenegraph-m2s-beth-aryan-class-project0.s3.amazonaws.com/5_11_4/nonequtriangle/6.png,,77277,16,plugin-m2s-task,test
13,639b97688c4fcd3ab5d82bc4,"['https://scenegraph-m2s-beth-aryan-class-project0.s3.amazonaws.com/13_10_11/line/4.png', 'https://scenegraph-m2s-beth-aryan-class-project0.s3.amazonaws.com/4_10_7/line/1.png']",True,0.0,class-project-0,4994-61393299-7f48-4fa5-8353-1a72c5bf644f,https://scenegraph-m2s-beth-aryan-class-project0.s3.amazonaws.com/4_10_7/line/1.png,https://scenegraph-m2s-beth-aryan-class-project0.s3.amazonaws.com/13_10_11/line/5.png,https://scenegraph-m2s-beth-aryan-class-project0.s3.amazonaws.com/13_10_11/line/4.png,13.0,,0.0-17.0,iter_0,scenegraph-m2s,0,1690,,https://scenegraph-m2s-beth-aryan-class-project0.s3.amazonaws.com/13_10_11/line/5.png,,79980,17,plugin-m2s-task,test
14,639b976a8c4fcd3ab5d82bc5,"['https://scenegraph-m2s-beth-aryan-class-project0.s3.amazonaws.com/13_18_10/random/6.png', 'https://scenegraph-m2s-beth-aryan-class-project0.s3.amazonaws.com/12_5_2/line/7.png']",True,0.0,class-project-0,4994-61393299-7f48-4fa5-8353-1a72c5bf644f,https://scenegraph-m2s-beth-aryan-class-project0.s3.amazonaws.com/12_5_2/line/7.png,https://scenegraph-m2s-beth-aryan-class-project0.s3.amazonaws.com/13_18_10/random/7.png,https://scenegraph-m2s-beth-aryan-class-project0.s3.amazonaws.com/13_18_10/random/6.png,14.0,,0.0-18.0,iter_0,scenegraph-m2s,0,1214,,https://scenegraph-m2s-beth-aryan-class-project0.s3.amazonaws.com/13_18_10/random/7.png,,82211,18,plugin-m2s-task,test
15,639b976d8c4fcd3ab5d82bc6,"['https://scenegraph-m2s-beth-aryan-class-project0.s3.amazonaws.com/10_4_12/line/7.png', 'https://scenegraph-m2s-beth-aryan-class-project0.s3.amazonaws.com/12_10_4/line/6.png']",True,1.0,class-project-0,4994-61393299-7f48-4fa5-8353-1a72c5bf644f,https://scenegraph-m2s-beth-aryan-class-project0.s3.amazonaws.com/10_4_12/line/7.png,https://scenegraph-m2s-beth-aryan-class-project0.s3.amazonaws.com/12_10_4/line/2.png,https://scenegraph-m2s-beth-aryan-class-project0.s3.amazonaws.com/12_10_4/line/6.png,15.0,,0.0-19.0,iter_0,scenegraph-m2s,1,1864,,https://scenegraph-m2s-beth-aryan-class-project0.s3.amazonaws.com/12_10_4/line/2.png,,85087,19,plugin-m2s-task,test
16,639b97708c4fcd3ab5d82bc7,"['https://scenegraph-m2s-beth-aryan-class-project0.s3.amazonaws.com/2_7_10/random/8.png', 'https://scenegraph-m2s-beth-aryan-class-project0.s3.amazonaws.com/11_7_13/random/7.png']",True,0.0,class-project-0,4994-61393299-7f48-4fa5-8353-1a72c5bf644f,https://scenegraph-m2s-beth-aryan-class-project0.s3.amazonaws.com/11_7_13/random/7.png,https://scenegraph-m2s-beth-aryan-class-project0.s3.amazonaws.com/2_7_10/random/9.png,https://scenegraph-m2s-beth-aryan-class-project0.s3.amazonaws.com/2_7_10/random/8.png,16.0,,0.0-20.0,iter_0,scenegraph-m2s,0,2091,,https://scenegraph-m2s-beth-aryan-class-project0.s3.amazonaws.com/2_7_10/random/9.png,,88190,20,plugin-m2s-task,test
17,639b97758c4fcd3ab5d82bc8,"['https://scenegraph-m2s-beth-aryan-class-project0.s3.amazonaws.com/12_18_5/random/3.png', 'https://scenegraph-m2s-beth-aryan-class-project0.s3.amazonaws.com/10_2_18/random/6.png']",True,1.0,class-project-0,4994-61393299-7f48-4fa5-8353-1a72c5bf644f,https://scenegraph-m2s-beth-aryan-class-project0.s3.amazonaws.com/12_18_5/random/3.png,https://scenegraph-m2s-beth-aryan-class-project0.s3.amazonaws.com/10_2_18/random/3.png,https://scenegraph-m2s-beth-aryan-class-project0.s3.amazonaws.com/10_2_18/random/6.png,17.0,,0.0-21.0,iter_0,scenegraph-m2s,1,3959,,https://scenegraph-m2s-beth-aryan-class-project0.s3.amazonaws.com/10_2_18/random/3.png,,93161,21,plugin-m2s-task,test
18,639b97788c4fcd3ab5d82bc9,"['https://scenegraph-m2s-beth-aryan-class-project0.s3.amazonaws.com/12_18_11/random/1.png', 'https://scenegraph-m2s-beth-aryan-class-project0.s3.amazonaws.com/14_7_2/random/9.png']",True,1.0,class-project-0,4994-61393299-7f48-4fa5-8353-1a72c5bf644f,https://scenegraph-m2s-beth-aryan-class-project0.s3.amazonaws.com/12_18_11/random/1.png,https://scenegraph-m2s-beth-aryan-class-project0.s3.amazonaws.com/14_7_2/random/2.png,https://scenegraph-m2s-beth-aryan-class-project0.s3.amazonaws.com/14_7_2/random/9.png,18.0,,0.0-22.0,iter_0,scenegraph-m2s,1,1740,,https://scenegraph-m2s-beth-aryan-class-project0.s3.amazonaws.com/14_7_2/random/2.png,,95916,22,plugin-m2s-task,test
19,639b977b8c4fcd3ab5d82bca,"['https://scenegraph-m2s-beth-aryan-class-project0.s3.amazonaws.com/18_13_5/nonequtriangle/9.png', 'https://scenegraph-m2s-beth-aryan-class-project0.s3.amazonaws.com/18_13_5/line/7.png']",True,1.0,class-project-0,4994-61393299-7f48-4fa5-8353-1a72c5bf644f,https://scenegraph-m2s-beth-aryan-class-project0.s3.amazonaws.com/18_13_5/nonequtriangle/9.png,https://scenegraph-m2s-beth-aryan-class-project0.s3.amazonaws.com/18_13_5/line/9.png,https://scenegraph-m2s-beth-aryan-class-project0.s3.amazonaws.com/18_13_5/line/7.png,19.0,,0.0-23.0,iter_0,scenegraph-m2s,1,2846,,https://scenegraph-m2s-beth-aryan-class-project0.s3.amazonaws.com/18_13_5/line/9.png,,99771,23,plugin-m2s-task,test
20,639b97868c4fcd3ab5d82bcb,"['https://scenegraph-m2s-beth-aryan-class-project0.s3.amazonaws.com/10_5_11/random/8.png', 'https://scenegraph-m2s-beth-aryan-class-project0.s3.amazonaws.com/10_5_11/nonequtriangle/9.png']",True,1.0,class-project-0,4994-61393299-7f48-4fa5-8353-1a72c5bf644f,https://scenegraph-m2s-beth-aryan-class-project0.s3.amazonaws.com/10_5_11/random/8.png,https://scenegraph-m2s-beth-aryan-class-project0.s3.amazonaws.com/10_5_11/nonequtriangle/5.png,https://scenegraph-m2s-beth-aryan-class-project0.s3.amazonaws.com/10_5_11/nonequtriangle/9.png,20.0,,0.0-24.0,iter_0,scenegraph-m2s,1,9204,,https://scenegraph-m2s-beth-aryan-class-project0.s3.amazonaws.com/10_5_11/nonequtriangle/5.png,,109990,24,plugin-m2s-task,test
21,639b97988c4fcd3ab5d82bcc,"['https://scenegraph-m2s-beth-aryan-class-project0.s3.amazonaws.com/18_4_5/random/5.png', 'https://scenegraph-m2s-beth-aryan-class-project0.s3.amazonaws.com/4_5_18/random/8.png']",False,1.0,class-project-0,4994-61393299-7f48-4fa5-8353-1a72c5bf644f,https://scenegraph-m2s-beth-aryan-class-project0.s3.amazonaws.com/18_4_5/random/5.png,https://scenegraph-m2s-beth-aryan-class-project0.s3.amazonaws.com/4_5_18/random/5.png,https://scenegraph-m2s-beth-aryan-class-project0.s3.amazonaws.com/4_5_18/random/8.png,21.0,,0.0-25.0,iter_0,scenegraph-m2s,0,17665,,https://scenegraph-m2s-beth-aryan-class-project0.s3.amazonaws.com/4_5_18/random/5.png,,128670,25,plugin-m2s-task,test
22,639b979d8c4fcd3ab5d82bcd,"['https://scenegraph-m2s-beth-aryan-class-project0.s3.amazonaws.com/13_12_14/line/1.png', 'https://scenegraph-m2s-beth-aryan-class-project0.s3.amazonaws.com/13_10_4/random/7.png']",True,0.0,class-project-0,4994-61393299-7f48-4fa5-8353-1a72c5bf644f,https://scenegraph-m2s-beth-aryan-class-project0.s3.amazonaws.com/13_10_4/random/7.png,https://scenegraph-m2s-beth-aryan-class-project0.s3.amazonaws.com/13_12_14/line/3.png,https://scenegraph-m2s-beth-aryan-class-project0.s3.amazonaws.com/13_12_14/line/1.png,22.0,,0.0-26.0,iter_0,scenegraph-m2s,0,3744,,https://scenegraph-m2s-beth-aryan-class-project0.s3.amazonaws.com/13_12_14/line/3.png,,133427,26,plugin-m2s-task,test
23,639b97a08c4fcd3ab5d82bce,"['https://scenegraph-m2s-beth-aryan-class-project0.s3.amazonaws.com/4_18_11/nonequtriangle/9.png', 'https://scenegraph-m2s-beth-aryan-class-project0.s3.amazonaws.com/18_11_4/nonequtriangle/9.png']",False,0.0,class-project-0,4994-61393299-7f48-4fa5-8353-1a72c5bf644f,https://scenegraph-m2s-beth-aryan-class-project0.s3.amazonaws.com/18_11_4/nonequtriangle/9.png,https://scenegraph-m2s-beth-aryan-class-project0.s3.amazonaws.com/4_18_11/nonequtriangle/2.png,https://scenegraph-m2s-beth-aryan-class-project0.s3.amazonaws.com/4_18_11/nonequtriangle/9.png,23.0,,0.0-27.0,iter_0,scenegraph-m2s,1,1868,,https://scenegraph-m2s-beth-aryan-class-project0.s3.amazonaws.com/4_18_11/nonequtriangle/2.png,,136309,27,plugin-m2s-task,test
24,639b97b68c4fcd3ab5d82bcf,"['https://scenegraph-m2s-beth-aryan-class-project0.s3.amazonaws.com/18_10_11/nonequtriangle/4.png', 'https://scenegraph-m2s-beth-aryan-class-project0.s3.amazonaws.com/10_11_18/nonequtriangle/1.png']",True,1.0,class-project-0,4994-61393299-7f48-4fa5-8353-1a72c5bf644f,https://scenegraph-m2s-beth-aryan-class-project0.s3.amazonaws.com/18_10_11/nonequtriangle/4.png,https://scenegraph-m2s-beth-aryan-class-project0.s3.amazonaws.com/10_11_18/nonequtriangle/9.png,https://scenegraph-m2s-beth-aryan-class-project0.s3.amazonaws.com/10_11_18/nonequtriangle/1.png,24.0,,0.0-28.0,iter_0,scenegraph-m2s,1,21455,,https://scenegraph-m2s-beth-aryan-class-project0.s3.amazonaws.com/10_11_18/nonequtriangle/9.png,,158778,28,plugin-m2s-task,test
25,639b97bb8c4fcd3ab5d82bd0,"['https://scenegraph-m2s-beth-aryan-class-project0.s3.amazonaws.com/7_10_14/nonequtriangle/1.png', 'https://scenegraph-m2s-beth-aryan-class-project0.s3.amazonaws.com/14_7_10/nonequtriangle/1.png']",True,0.0,class-project-0,4994-61393299-7f48-4fa5-8353-1a72c5bf644f,https://scenegraph-m2s-beth-aryan-class-project0.s3.amazonaws.com/14_7_10/nonequtriangle/1.png,https://scenegraph-m2s-beth-aryan-class-project0.s3.amazonaws.com/7_10_14/nonequtriangle/5.png,https://scenegraph-m2s-beth-aryan-class-project0.s3.amazonaws.com/7_10_14/nonequtriangle/1.png,25.0,,0.0-29.0,iter_0,scenegraph-m2s,0,3231,,https://scenegraph-m2s-beth-aryan-class-project0.s3.amazonaws.com/7_10_14/nonequtriangle/5.png,,163024,29,plugin-m2s-task,test
26,639b97bf8c4fcd3ab5d82bd1,"['https://scenegraph-m2s-beth-aryan-class-project0.s3.amazonaws.com/18_2_7/line/5.png', 'https://scenegraph-m2s-beth-aryan-class-project0.s3.amazonaws.com/10_11_2/nonequtriangle/1.png']",True,1.0,class-project-0,4994-61393299-7f48-4fa5-8353-1a72c5bf644f,https://scenegraph-m2s-beth-aryan-class-project0.s3.amazonaws.com/18_2_7/line/5.png,https://scenegraph-m2s-beth-aryan-class-project0.s3.amazonaws.com/10_11_2/nonequtriangle/5.png,https://scenegraph-m2s-beth-aryan-class-project0.s3.amazonaws.com/10_11_2/nonequtriangle/1.png,26.0,,0.0-30.0,iter_0,scenegraph-m2s,1,3167,,https://scenegraph-m2s-beth-aryan-class-project0.s3.amazonaws.com/10_11_2/nonequtriangle/5.png,,167204,30,plugin-m2s-task,test
27,639b97c38c4fcd3ab5d82bd2,"['https://scenegraph-m2s-beth-aryan-class-project0.s3.amazonaws.com/12_18_4/nonequtriangle/5.png', 'https://scenegraph-m2s-beth-aryan-class-project0.s3.amazonaws.com/4_12_18/nonequtriangle/4.png']",True,1.0,class-project-0,4994-61393299-7f48-4fa5-8353-1a72c5bf644f,https://scenegraph-m2s-beth-aryan-class-project0.s3.amazonaws.com/12_18_4/nonequtriangle/5.png,https://scenegraph-m2s-beth-aryan-class-project0.s3.amazonaws.com/4_12_18/nonequtriangle/3.png,https://scenegraph-m2s-beth-aryan-class-project0.s3.amazonaws.com/4_12_18/nonequtriangle/4.png,27.0,,0.0-31.0,iter_0,scenegraph-m2s,1,3537,,https://scenegraph-m2s-beth-aryan-class-project0.s3.amazonaws.com/4_12_18/nonequtriangle/3.png,,171754,31,plugin-m2s-task,test
28,639b97c98c4fcd3ab5d82bd3,"['https://scenegraph-m2s-beth-aryan-class-project0.s3.amazonaws.com/4_13_10/nonequtriangle/1.png', 'https://scenegraph-m2s-beth-aryan-class-project0.s3.amazonaws.com/10_13_4/nonequtriangle/2.png']",False,1.0,class-project-0,4994-61393299-7f48-4fa5-8353-1a72c5bf644f,https://scenegraph-m2s-beth-aryan-class-project0.s3.amazonaws.com/4_13_10/nonequtriangle/1.png,https://scenegraph-m2s-beth-aryan-class-project0.s3.amazonaws.com/10_13_4/nonequtriangle/3.png,https://scenegraph-m2s-beth-aryan-class-project0.s3.amazonaws.com/10_13_4/nonequtriangle/2.png,28.0,,0.0-32.0,iter_0,scenegraph-m2s,0,4198,,https://scenegraph-m2s-beth-aryan-class-project0.s3.amazonaws.com/10_13_4/nonequtriangle/3.png,,176964,32,plugin-m2s-task,test
29,639b97cd8c4fcd3ab5d82bd4,"['https://scenegraph-m2s-beth-aryan-class-project0.s3.amazonaws.com/10_12_2/nonequtriangle/3.png', 'https://scenegraph-m2s-beth-aryan-class-project0.s3.amazonaws.com/2_10_12/random/4.png']",True,0.0,class-project-0,4994-61393299-7f48-4fa5-8353-1a72c5bf644f,https://scenegraph-m2s-beth-aryan-class-project0.s3.amazonaws.com/2_10_12/random/4.png,https://scenegraph-m2s-beth-aryan-class-project0.s3.amazonaws.com/10_12_2/nonequtriangle/5.png,https://scenegraph-m2s-beth-aryan-class-project0.s3.amazonaws.com/10_12_2/nonequtriangle/3.png,29.0,,0.0-33.0,iter_0,scenegraph-m2s,0,3387,,https://scenegraph-m2s-beth-aryan-class-project0.s3.amazonaws.com/10_12_2/nonequtriangle/5.png,,181364,33,plugin-m2s-task,test
30,639b97d08c4fcd3ab5d82bd5,"['https://scenegraph-m2s-beth-aryan-class-project0.s3.amazonaws.com/4_7_18/nonequtriangle/6.png', 'https://scenegraph-m2s-beth-aryan-class-project0.s3.amazonaws.com/7_4_18/line/1.png']",True,1.0,class-project-0,4994-61393299-7f48-4fa5-8353-1a72c5bf644f,https://scenegraph-m2s-beth-aryan-class-project0.s3.amazonaws.com/4_7_18/nonequtriangle/6.png,https://scenegraph-m2s-beth-aryan-class-project0.s3.amazonaws.com/7_4_18/line/7.png,https://scenegraph-m2s-beth-aryan-class-project0.s3.amazonaws.com/7_4_18/line/1.png,30.0,,0.0-34.0,iter_0,scenegraph-m2s,1,1485,,https://scenegraph-m2s-beth-aryan-class-project0.s3.amazonaws.com/7_4_18/line/7.png,,183861,34,plugin-m2s-task,test
31,639b97d38c4fcd3ab5d82bd6,"['https://scenegraph-m2s-beth-aryan-class-project0.s3.amazonaws.com/14_18_12/nonequtriangle/4.png', 'https://scenegraph-m2s-beth-aryan-class-project0.s3.amazonaws.com/18_14_12/line/8.png']",True,1.0,class-project-0,4994-61393299-7f48-4fa5-8353-1a72c5bf644f,https://scenegraph-m2s-beth-aryan-class-project0.s3.amazonaws.com/14_18_12/nonequtriangle/4.png,https://scenegraph-m2s-beth-aryan-class-project0.s3.amazonaws.com/18_14_12/line/2.png,https://scenegraph-m2s-beth-aryan-class-project0.s3.amazonaws.com/18_14_12/line/8.png,31.0,,0.0-35.0,iter_0,scenegraph-m2s,1,2015,,https://scenegraph-m2s-beth-aryan-class-project0.s3.amazonaws.com/18_14_12/line/2.png,,186887,35,plugin-m2s-task,test
32,639b97d68c4fcd3ab5d82bd7,"['https://scenegraph-m2s-beth-aryan-class-project0.s3.amazonaws.com/7_10_13/line/4.png', 'https://scenegraph-m2s-beth-aryan-class-project0.s3.amazonaws.com/12_18_5/line/9.png']",True,0.0,class-project-0,4994-61393299-7f48-4fa5-8353-1a72c5bf644f,https://scenegraph-m2s-beth-aryan-class-project0.s3.amazonaws.com/12_18_5/line/9.png,https://scenegraph-m2s-beth-aryan-class-project0.s3.amazonaws.com/7_10_13/line/2.png,https://scenegraph-m2s-beth-aryan-class-project0.s3.amazonaws.com/7_10_13/line/4.png,32.0,,0.0-36.0,iter_0,scenegraph-m2s,0,1875,,https://scenegraph-m2s-beth-aryan-class-project0.s3.amazonaws.com/7_10_13/line/2.png,,189775,36,plugin-m2s-task,test
33,639b97d88c4fcd3ab5d82bd8,"['https://scenegraph-m2s-beth-aryan-class-project0.s3.amazonaws.com/4_13_12/random/2.png', 'https://scenegraph-m2s-beth-aryan-class-project0.s3.amazonaws.com/18_4_11/random/1.png']",True,0.0,class-project-0,4994-61393299-7f48-4fa5-8353-1a72c5bf644f,https://scenegraph-m2s-beth-aryan-class-project0.s3.amazonaws.com/18_4_11/random/1.png,https://scenegraph-m2s-beth-aryan-class-project0.s3.amazonaws.com/4_13_12/random/4.png,https://scenegraph-m2s-beth-aryan-class-project0.s3.amazonaws.com/4_13_12/random/2.png,33.0,,0.0-37.0,iter_0,scenegraph-m2s,0,1259,,https://scenegraph-m2s-beth-aryan-class-project0.s3.amazonaws.com/4_13_12/random/4.png,,192047,37,plugin-m2s-task,test
34,639b97dc8c4fcd3ab5d82bd9,"['https://scenegraph-m2s-beth-aryan-class-project0.s3.amazonaws.com/7_14_18/random/7.png', 'https://scenegraph-m2s-beth-aryan-class-project0.s3.amazonaws.com/18_14_7/nonequtriangle/3.png']",True,0.0,class-project-0,4994-61393299-7f48-4fa5-8353-1a72c5bf644f,https://scenegraph-m2s-beth-aryan-class-project0.s3.amazonaws.com/18_14_7/nonequtriangle/3.png,https://scenegraph-m2s-beth-aryan-class-project0.s3.amazonaws.com/7_14_18/random/9.png,https://scenegraph-m2s-beth-aryan-class-project0.s3.amazonaws.com/7_14_18/random/7.png,34.0,,0.0-38.0,iter_0,scenegraph-m2s,0,3077,,https://scenegraph-m2s-beth-aryan-class-project0.s3.amazonaws.com/7_14_18/random/9.png,,196137,38,plugin-m2s-task,test
35,639b97e28c4fcd3ab5d82bda,"['https://scenegraph-m2s-beth-aryan-class-project0.s3.amazonaws.com/5_14_2/line/5.png', 'https://scenegraph-m2s-beth-aryan-class-project0.s3.amazonaws.com/2_14_5/line/2.png']",True,1.0,class-project-0,4994-61393299-7f48-4fa5-8353-1a72c5bf644f,https://scenegraph-m2s-beth-aryan-class-project0.s3.amazonaws.com/5_14_2/line/5.png,https://scenegraph-m2s-beth-aryan-class-project0.s3.amazonaws.com/2_14_5/line/6.png,https://scenegraph-m2s-beth-aryan-class-project0.s3.amazonaws.com/2_14_5/line/2.png,35.0,,0.0-39.0,iter_0,scenegraph-m2s,1,5629,,https://scenegraph-m2s-beth-aryan-class-project0.s3.amazonaws.com/2_14_5/line/6.png,,202780,39,plugin-m2s-task,test
36,639b97e58c4fcd3ab5d82bdb,"['https://scenegraph-m2s-beth-aryan-class-project0.s3.amazonaws.com/2_7_13/nonequtriangle/4.png', 'https://scenegraph-m2s-beth-aryan-class-project0.s3.amazonaws.com/10_4_14/nonequtriangle/2.png']",True,1.0,class-project-0,4994-61393299-7f48-4fa5-8353-1a72c5bf644f,https://scenegraph-m2s-beth-aryan-class-project0.s3.amazonaws.com/2_7_13/nonequtriangle/4.png,https://scenegraph-m2s-beth-aryan-class-project0.s3.amazonaws.com/10_4_14/nonequtriangle/4.png,https://scenegraph-m2s-beth-aryan-class-project0.s3.amazonaws.com/10_4_14/nonequtriangle/2.png,36.0,,0.0-40.0,iter_0,scenegraph-m2s,1,1173,,https://scenegraph-m2s-beth-aryan-class-project0.s3.amazonaws.com/10_4_14/nonequtriangle/4.png,,204966,40,plugin-m2s-task,test
37,639b97e88c4fcd3ab5d82bdc,"['https://scenegraph-m2s-beth-aryan-class-project0.s3.amazonaws.com/10_12_7/nonequtriangle/8.png', 'https://scenegraph-m2s-beth-aryan-class-project0.s3.amazonaws.com/10_12_7/line/5.png']",True,1.0,class-project-0,4994-61393299-7f48-4fa5-8353-1a72c5bf644f,https://scenegraph-m2s-beth-aryan-class-project0.s3.amazonaws.com/10_12_7/nonequtriangle/8.png,https://scenegraph-m2s-beth-aryan-class-project0.s3.amazonaws.com/10_12_7/line/9.png,https://scenegraph-m2s-beth-aryan-class-project0.s3.amazonaws.com/10_12_7/line/5.png,37.0,,0.0-41.0,iter_0,scenegraph-m2s,1,1958,,https://scenegraph-m2s-beth-aryan-class-project0.s3.amazonaws.com/10_12_7/line/9.png,,207938,41,plugin-m2s-task,test
38,639b97eb8c4fcd3ab5d82bdd,"['https://scenegraph-m2s-beth-aryan-class-project0.s3.amazonaws.com/10_7_14/line/2.png', 'https://scenegraph-m2s-beth-aryan-class-project0.s3.amazonaws.com/5_10_4/line/2.png']",True,1.0,class-project-0,4994-61393299-7f48-4fa5-8353-1a72c5bf644f,https://scenegraph-m2s-beth-aryan-class-project0.s3.amazonaws.com/10_7_14/line/2.png,https://scenegraph-m2s-beth-aryan-class-project0.s3.amazonaws.com/5_10_4/line/8.png,https://scenegraph-m2s-beth-aryan-class-project0.s3.amazonaws.com/5_10_4/line/2.png,38.0,,0.0-42.0,iter_0,scenegraph-m2s,1,2487,,https://scenegraph-m2s-beth-aryan-class-project0.s3.amazonaws.com/5_10_4/line/8.png,,211437,42,plugin-m2s-task,test
39,639b97f08c4fcd3ab5d82bde,"['https://scenegraph-m2s-beth-aryan-class-project0.s3.amazonaws.com/7_11_12/line/2.png', 'https://scenegraph-m2s-beth-aryan-class-project0.s3.amazonaws.com/7_12_11/nonequtriangle/9.png']",True,0.0,class-project-0,4994-61393299-7f48-4fa5-8353-1a72c5bf644f,https://scenegraph-m2s-beth-aryan-class-project0.s3.amazonaws.com/7_12_11/nonequtriangle/9.png,https://scenegraph-m2s-beth-aryan-class-project0.s3.amazonaws.com/7_11_12/line/8.png,https://scenegraph-m2s-beth-aryan-class-project0.s3.amazonaws.com/7_11_12/line/2.png,39.0,,0.0-43.0,iter_0,scenegraph-m2s,0,4391,,https://scenegraph-m2s-beth-aryan-class-project0.s3.amazonaws.com/7_11_12/line/8.png,,216842,43,plugin-m2s-task,test
40,639b97f38c4fcd3ab5d82bdf,"['https://scenegraph-m2s-beth-aryan-class-project0.s3.amazonaws.com/5_10_18/nonequtriangle/4.png', 'https://scenegraph-m2s-beth-aryan-class-project0.s3.amazonaws.com/10_18_5/line/3.png']",True,1.0,class-project-0,4994-61393299-7f48-4fa5-8353-1a72c5bf644f,https://scenegraph-m2s-beth-aryan-class-project0.s3.amazonaws.com/5_10_18/nonequtriangle/4.png,https://scenegraph-m2s-beth-aryan-class-project0.s3.amazonaws.com/10_18_5/line/1.png,https://scenegraph-m2s-beth-aryan-class-project0.s3.amazonaws.com/10_18_5/line/3.png,40.0,,0.0-44.0,iter_0,scenegraph-m2s,1,1534,,https://scenegraph-m2s-beth-aryan-class-project0.s3.amazonaws.com/10_18_5/line/1.png,,219389,44,plugin-m2s-task,test
41,639b97f68c4fcd3ab5d82be0,"['https://scenegraph-m2s-beth-aryan-class-project0.s3.amazonaws.com/2_12_4/nonequtriangle/9.png', 'https://scenegraph-m2s-beth-aryan-class-project0.s3.amazonaws.com/12_4_2/nonequtriangle/2.png']",True,0.0,class-project-0,4994-61393299-7f48-4fa5-8353-1a72c5bf644f,https://scenegraph-m2s-beth-aryan-class-project0.s3.amazonaws.com/12_4_2/nonequtriangle/2.png,https://scenegraph-m2s-beth-aryan-class-project0.s3.amazonaws.com/2_12_4/nonequtriangle/1.png,https://scenegraph-m2s-beth-aryan-class-project0.s3.amazonaws.com/2_12_4/nonequtriangle/9.png,41.0,,0.0-45.0,iter_0,scenegraph-m2s,0,2070,,https://scenegraph-m2s-beth-aryan-class-project0.s3.amazonaws.com/2_12_4/nonequtriangle/1.png,,222471,45,plugin-m2s-task,test
42,639b97f98c4fcd3ab5d82be1,"['https://scenegraph-m2s-beth-aryan-class-project0.s3.amazonaws.com/18_14_5/random/9.png', 'https://scenegraph-m2s-beth-aryan-class-project0.s3.amazonaws.com/13_10_14/random/1.png']",True,1.0,class-project-0,4994-61393299-7f48-4fa5-8353-1a72c5bf644f,https://scenegraph-m2s-beth-aryan-class-project0.s3.amazonaws.com/18_14_5/random/9.png,https://scenegraph-m2s-beth-aryan-class-project0.s3.amazonaws.com/13_10_14/random/5.png,https://scenegraph-m2s-beth-aryan-class-project0.s3.amazonaws.com/13_10_14/random/1.png,42.0,,0.0-46.0,iter_0,scenegraph-m2s,1,1705,,https://scenegraph-m2s-beth-aryan-class-project0.s3.amazonaws.com/13_10_14/random/5.png,,225187,46,plugin-m2s-task,test
43,639b97fc8c4fcd3ab5d82be2,"['https://scenegraph-m2s-beth-aryan-class-project0.s3.amazonaws.com/14_4_18/nonequtriangle/5.png', 'https://scenegraph-m2s-beth-aryan-class-project0.s3.amazonaws.com/14_18_4/line/5.png']",True,0.0,class-project-0,4994-61393299-7f48-4fa5-8353-1a72c5bf644f,https://scenegraph-m2s-beth-aryan-class-project0.s3.amazonaws.com/14_18_4/line/5.png,https://scenegraph-m2s-beth-aryan-class-project0.s3.amazonaws.com/14_4_18/nonequtriangle/9.png,https://scenegraph-m2s-beth-aryan-class-project0.s3.amazonaws.com/14_4_18/nonequtriangle/5.png,43.0,,0.0-47.0,iter_0,scenegraph-m2s,0,1780,,https://scenegraph-m2s-beth-aryan-class-project0.s3.amazonaws.com/14_4_18/nonequtriangle/9.png,,227978,47,plugin-m2s-task,test
44,639b97ff8c4fcd3ab5d82be3,"['https://scenegraph-m2s-beth-aryan-class-project0.s3.amazonaws.com/7_18_12/random/7.png', 'https://scenegraph-m2s-beth-aryan-class-project0.s3.amazonaws.com/18_12_7/random/8.png']",True,0.0,class-project-0,4994-61393299-7f48-4fa5-8353-1a72c5bf644f,https://scenegraph-m2s-beth-aryan-class-project0.s3.amazonaws.com/18_12_7/random/8.png,https://scenegraph-m2s-beth-aryan-class-project0.s3.amazonaws.com/7_18_12/random/4.png,https://scenegraph-m2s-beth-aryan-class-project0.s3.amazonaws.com/7_18_12/random/7.png,44.0,,0.0-48.0,iter_0,scenegraph-m2s,0,2263,,https://scenegraph-m2s-beth-aryan-class-project0.s3.amazonaws.com/7_18_12/random/4.png,,231254,48,plugin-m2s-task,test
45,639b98038c4fcd3ab5d82be4,"['https://scenegraph-m2s-beth-aryan-class-project0.s3.amazonaws.com/5_14_10/line/2.png', 'https://scenegraph-m2s-beth-aryan-class-project0.s3.amazonaws.com/10_14_5/line/7.png']",True,0.0,class-project-0,4994-61393299-7f48-4fa5-8353-1a72c5bf644f,https://scenegraph-m2s-beth-aryan-class-project0.s3.amazonaws.com/10_14_5/line/7.png,https://scenegraph-m2s-beth-aryan-class-project0.s3.amazonaws.com/5_14_10/line/4.png,https://scenegraph-m2s-beth-aryan-class-project0.s3.amazonaws.com/5_14_10/line/2.png,45.0,,0.0-49.0,iter_0,scenegraph-m2s,0,3315,,https://scenegraph-m2s-beth-aryan-class-project0.s3.amazonaws.com/5_14_10/line/4.png,,235581,49,plugin-m2s-task,test
46,639b98068c4fcd3ab5d82be5,"['https://scenegraph-m2s-beth-aryan-class-project0.s3.amazonaws.com/18_4_5/line/4.png', 'https://scenegraph-m2s-beth-aryan-class-project0.s3.amazonaws.com/10_14_18/random/1.png']",True,1.0,class-project-0,4994-61393299-7f48-4fa5-8353-1a72c5bf644f,https://scenegraph-m2s-beth-aryan-class-project0.s3.amazonaws.com/18_4_5/line/4.png,https://scenegraph-m2s-beth-aryan-class-project0.s3.amazonaws.com/10_14_18/random/3.png,https://scenegraph-m2s-beth-aryan-class-project0.s3.amazonaws.com/10_14_18/random/1.png,46.0,,0.0-50.0,iter_0,scenegraph-m2s,1,1817,,https://scenegraph-m2s-beth-aryan-class-project0.s3.amazonaws.com/10_14_18/random/3.png,,238410,50,plugin-m2s-task,test
47,639b980a8c4fcd3ab5d82be6,"['https://scenegraph-m2s-beth-aryan-class-project0.s3.amazonaws.com/18_7_5/nonequtriangle/4.png', 'https://scenegraph-m2s-beth-aryan-class-project0.s3.amazonaws.com/7_5_18/random/8.png']",True,1.0,class-project-0,4994-61393299-7f48-4fa5-8353-1a72c5bf644f,https://scenegraph-m2s-beth-aryan-class-project0.s3.amazonaws.com/18_7_5/nonequtriangle/4.png,https://scenegraph-m2s-beth-aryan-class-project0.s3.amazonaws.com/7_5_18/random/2.png,https://scenegraph-m2s-beth-aryan-class-project0.s3.amazonaws.com/7_5_18/random/8.png,47.0,,0.0-51.0,iter_0,scenegraph-m2s,1,3347,,https://scenegraph-m2s-beth-aryan-class-project0.s3.amazonaws.com/7_5_18/random/2.png,,242770,51,plugin-m2s-task,test
48,639b980e8c4fcd3ab5d82be7,"['https://scenegraph-m2s-beth-aryan-class-project0.s3.amazonaws.com/2_11_10/random/9.png', 'https://scenegraph-m2s-beth-aryan-class-project0.s3.amazonaws.com/12_5_14/nonequtriangle/4.png']",True,0.0,class-project-0,4994-61393299-7f48-4fa5-8353-1a72c5bf644f,https://scenegraph-m2s-beth-aryan-class-project0.s3.amazonaws.com/12_5_14/nonequtriangle/4.png,https://scenegraph-m2s-beth-aryan-class-project0.s3.amazonaws.com/2_11_10/random/5.png,https://scenegraph-m2s-beth-aryan-class-project0.s3.amazonaws.com/2_11_10/random/9.png,48.0,,0.0-52.0,iter_0,scenegraph-m2s,0,2237,,https://scenegraph-m2s-beth-aryan-class-project0.s3.amazonaws.com/2_11_10/random/5.png,,246021,52,plugin-m2s-task,test
49,639b98128c4fcd3ab5d82be8,"['https://scenegraph-m2s-beth-aryan-class-project0.s3.amazonaws.com/14_4_13/random/9.png', 'https://scenegraph-m2s-beth-aryan-class-project0.s3.amazonaws.com/4_13_14/line/9.png']",True,0.0,class-project-0,4994-61393299-7f48-4fa5-8353-1a72c5bf644f,https://scenegraph-m2s-beth-aryan-class-project0.s3.amazonaws.com/4_13_14/line/9.png,https://scenegraph-m2s-beth-aryan-class-project0.s3.amazonaws.com/14_4_13/random/5.png,https://scenegraph-m2s-beth-aryan-class-project0.s3.amazonaws.com/14_4_13/random/9.png,49.0,,0.0-53.0,iter_0,scenegraph-m2s,0,3360,,https://scenegraph-m2s-beth-aryan-class-project0.s3.amazonaws.com/14_4_13/random/5.png,,250396,53,plugin-m2s-task,test
50,639b98168c4fcd3ab5d82be9,"['https://scenegraph-m2s-beth-aryan-class-project0.s3.amazonaws.com/10_12_14/line/9.png', 'https://scenegraph-m2s-beth-aryan-class-project0.s3.amazonaws.com/10_12_14/nonequtriangle/3.png']",True,0.0,class-project-0,4994-61393299-7f48-4fa5-8353-1a72c5bf644f,https://scenegraph-m2s-beth-aryan-class-project0.s3.amazonaws.com/10_12_14/nonequtriangle/3.png,https://scenegraph-m2s-beth-aryan-class-project0.s3.amazonaws.com/10_12_14/line/2.png,https://scenegraph-m2s-beth-aryan-class-project0.s3.amazonaws.com/10_12_14/line/9.png,50.0,,0.0-54.0,iter_0,scenegraph-m2s,0,2986,,https://scenegraph-m2s-beth-aryan-class-project0.s3.amazonaws.com/10_12_14/line/2.png,,254396,54,plugin-m2s-task,test
51,639b98198c4fcd3ab5d82bea,"['https://scenegraph-m2s-beth-aryan-class-project0.s3.amazonaws.com/12_2_14/random/8.png', 'https://scenegraph-m2s-beth-aryan-class-project0.s3.amazonaws.com/7_4_11/line/9.png']",True,0.0,class-project-0,4994-61393299-7f48-4fa5-8353-1a72c5bf644f,https://scenegraph-m2s-beth-aryan-class-project0.s3.amazonaws.com/7_4_11/line/9.png,https://scenegraph-m2s-beth-aryan-class-project0.s3.amazonaws.com/12_2_14/random/6.png,https://scenegraph-m2s-beth-aryan-class-project0.s3.amazonaws.com/12_2_14/random/8.png,51.0,,0.0-55.0,iter_0,scenegraph-m2s,0,1905,,https://scenegraph-m2s-beth-aryan-class-project0.s3.amazonaws.com/12_2_14/random/6.png,,257314,55,plugin-m2s-task,test
52,639b982d8c4fcd3ab5d82beb,"['https://scenegraph-m2s-beth-aryan-class-project0.s3.amazonaws.com/18_11_14/random/5.png', 'https://scenegraph-m2s-beth-aryan-class-project0.s3.amazonaws.com/14_11_18/nonequtriangle/1.png']",True,0.0,class-project-0,4994-61393299-7f48-4fa5-8353-1a72c5bf644f,https://scenegraph-m2s-beth-aryan-class-project0.s3.amazonaws.com/14_11_18/nonequtriangle/1.png,https://scenegraph-m2s-beth-aryan-class-project0.s3.amazonaws.com/18_11_14/random/2.png,https://scenegraph-m2s-beth-aryan-class-project0.s3.amazonaws.com/18_11_14/random/5.png,52.0,,0.0-56.0,iter_0,scenegraph-m2s,0,18599,,https://scenegraph-m2s-beth-aryan-class-project0.s3.amazonaws.com/18_11_14/random/2.png,,276927,56,plugin-m2s-task,test
53,639b98308c4fcd3ab5d82bec,"['https://scenegraph-m2s-beth-aryan-class-project0.s3.amazonaws.com/2_11_13/nonequtriangle/6.png', 'https://scenegraph-m2s-beth-aryan-class-project0.s3.amazonaws.com/11_2_13/line/8.png']",True,0.0,class-project-0,4994-61393299-7f48-4fa5-8353-1a72c5bf644f,https://scenegraph-m2s-beth-aryan-class-project0.s3.amazonaws.com/11_2_13/line/8.png,https://scenegraph-m2s-beth-aryan-class-project0.s3.amazonaws.com/2_11_13/nonequtriangle/2.png,https://scenegraph-m2s-beth-aryan-class-project0.s3.amazonaws.com/2_11_13/nonequtriangle/6.png,53.0,,0.0-57.0,iter_0,scenegraph-m2s,0,1946,,https://scenegraph-m2s-beth-aryan-class-project0.s3.amazonaws.com/2_11_13/nonequtriangle/2.png,,279887,57,plugin-m2s-task,test
54,639b98338c4fcd3ab5d82bed,"['https://scenegraph-m2s-beth-aryan-class-project0.s3.amazonaws.com/2_5_13/line/7.png', 'https://scenegraph-m2s-beth-aryan-class-project0.s3.amazonaws.com/5_2_13/line/2.png']",True,0.0,class-project-0,4994-61393299-7f48-4fa5-8353-1a72c5bf644f,https://scenegraph-m2s-beth-aryan-class-project0.s3.amazonaws.com/5_2_13/line/2.png,https://scenegraph-m2s-beth-aryan-class-project0.s3.amazonaws.com/2_5_13/line/8.png,https://scenegraph-m2s-beth-aryan-class-project0.s3.amazonaws.com/2_5_13/line/7.png,54.0,,0.0-58.0,iter_0,scenegraph-m2s,0,2702,,https://scenegraph-m2s-beth-aryan-class-project0.s3.amazonaws.com/2_5_13/line/8.png,,283601,58,plugin-m2s-task,test
55,639b98378c4fcd3ab5d82bee,"['https://scenegraph-m2s-beth-aryan-class-project0.s3.amazonaws.com/2_18_5/line/3.png', 'https://scenegraph-m2s-beth-aryan-class-project0.s3.amazonaws.com/5_2_18/line/9.png']",True,0.0,class-project-0,4994-61393299-7f48-4fa5-8353-1a72c5bf644f,https://scenegraph-m2s-beth-aryan-class-project0.s3.amazonaws.com/5_2_18/line/9.png,https://scenegraph-m2s-beth-aryan-class-project0.s3.amazonaws.com/2_18_5/line/1.png,https://scenegraph-m2s-beth-aryan-class-project0.s3.amazonaws.com/2_18_5/line/3.png,55.0,,0.0-59.0,iter_0,scenegraph-m2s,0,2977,,https://scenegraph-m2s-beth-aryan-class-project0.s3.amazonaws.com/2_18_5/line/1.png,,287592,59,plugin-m2s-task,test
56,639b983a8c4fcd3ab5d82bef,"['https://scenegraph-m2s-beth-aryan-class-project0.s3.amazonaws.com/14_11_7/line/8.png', 'https://scenegraph-m2s-beth-aryan-class-project0.s3.amazonaws.com/4_7_13/random/2.png']",True,1.0,class-project-0,4994-61393299-7f48-4fa5-8353-1a72c5bf644f,https://scenegraph-m2s-beth-aryan-class-project0.s3.amazonaws.com/14_11_7/line/8.png,https://scenegraph-m2s-beth-aryan-class-project0.s3.amazonaws.com/4_7_13/random/1.png,https://scenegraph-m2s-beth-aryan-class-project0.s3.amazonaws.com/4_7_13/random/2.png,56.0,,0.0-60.0,iter_0,scenegraph-m2s,1,1860,,https://scenegraph-m2s-beth-aryan-class-project0.s3.amazonaws.com/4_7_13/random/1.png,,290463,60,plugin-m2s-task,test
57,639b983f8c4fcd3ab5d82bf0,"['https://scenegraph-m2s-beth-aryan-class-project0.s3.amazonaws.com/4_10_11/random/7.png', 'https://scenegraph-m2s-beth-aryan-class-project0.s3.amazonaws.com/11_4_10/random/3.png']",True,1.0,class-project-0,4994-61393299-7f48-4fa5-8353-1a72c5bf644f,https://scenegraph-m2s-beth-aryan-class-project0.s3.amazonaws.com/4_10_11/random/7.png,https://scenegraph-m2s-beth-aryan-class-project0.s3.amazonaws.com/11_4_10/random/8.png,https://scenegraph-m2s-beth-aryan-class-project0.s3.amazonaws.com/11_4_10/random/3.png,57.0,,0.0-61.0,iter_0,scenegraph-m2s,1,4147,,https://scenegraph-m2s-beth-aryan-class-project0.s3.amazonaws.com/11_4_10/random/8.png,,295623,61,plugin-m2s-task,test
58,639b98428c4fcd3ab5d82bf1,"['https://scenegraph-m2s-beth-aryan-class-project0.s3.amazonaws.com/11_5_13/nonequtriangle/6.png', 'https://scenegraph-m2s-beth-aryan-class-project0.s3.amazonaws.com/5_2_10/nonequtriangle/8.png']",True,1.0,class-project-0,4994-61393299-7f48-4fa5-8353-1a72c5bf644f,https://scenegraph-m2s-beth-aryan-class-project0.s3.amazonaws.com/11_5_13/nonequtriangle/6.png,https://scenegraph-m2s-beth-aryan-class-project0.s3.amazonaws.com/5_2_10/nonequtriangle/6.png,https://scenegraph-m2s-beth-aryan-class-project0.s3.amazonaws.com/5_2_10/nonequtriangle/8.png,58.0,,0.0-62.0,iter_0,scenegraph-m2s,1,1772,,https://scenegraph-m2s-beth-aryan-class-project0.s3.amazonaws.com/5_2_10/nonequtriangle/6.png,,298408,62,plugin-m2s-task,test
59,639b98448c4fcd3ab5d82bf2,"['https://scenegraph-m2s-beth-aryan-class-project0.s3.amazonaws.com/5_12_4/nonequtriangle/9.png', 'https://scenegraph-m2s-beth-aryan-class-project0.s3.amazonaws.com/11_14_5/nonequtriangle/4.png']",True,1.0,class-project-0,4994-61393299-7f48-4fa5-8353-1a72c5bf644f,https://scenegraph-m2s-beth-aryan-class-project0.s3.amazonaws.com/5_12_4/nonequtriangle/9.png,https://scenegraph-m2s-beth-aryan-class-project0.s3.amazonaws.com/11_14_5/nonequtriangle/5.png,https://scenegraph-m2s-beth-aryan-class-project0.s3.amazonaws.com/11_14_5/nonequtriangle/4.png,59.0,,0.0-63.0,iter_0,scenegraph-m2s,1,1351,,https://scenegraph-m2s-beth-aryan-class-project0.s3.amazonaws.com/11_14_5/nonequtriangle/5.png,,300770,63,plugin-m2s-task,test
60,639b98518c4fcd3ab5d82bf3,"['https://scenegraph-m2s-beth-aryan-class-project0.s3.amazonaws.com/13_4_7/nonequtriangle/6.png', 'https://scenegraph-m2s-beth-aryan-class-project0.s3.amazonaws.com/13_12_2/nonequtriangle/9.png']",True,0.0,class-project-0,4994-61393299-7f48-4fa5-8353-1a72c5bf644f,https://scenegraph-m2s-beth-aryan-class-project0.s3.amazonaws.com/13_12_2/nonequtriangle/9.png,https://scenegraph-m2s-beth-aryan-class-project0.s3.amazonaws.com/13_4_7/nonequtriangle/4.png,https://scenegraph-m2s-beth-aryan-class-project0.s3.amazonaws.com/13_4_7/nonequtriangle/6.png,60.0,,0.0-65.0,iter_0,scenegraph-m2s,0,9249,,https://scenegraph-m2s-beth-aryan-class-project0.s3.amazonaws.com/13_4_7/nonequtriangle/4.png,,313408,65,plugin-m2s-task,test
61,639b98568c4fcd3ab5d82bf4,"['https://scenegraph-m2s-beth-aryan-class-project0.s3.amazonaws.com/12_18_2/random/5.png', 'https://scenegraph-m2s-beth-aryan-class-project0.s3.amazonaws.com/11_13_18/random/9.png']",True,0.0,class-project-0,4994-61393299-7f48-4fa5-8353-1a72c5bf644f,https://scenegraph-m2s-beth-aryan-class-project0.s3.amazonaws.com/11_13_18/random/9.png,https://scenegraph-m2s-beth-aryan-class-project0.s3.amazonaws.com/12_18_2/random/6.png,https://scenegraph-m2s-beth-aryan-class-project0.s3.amazonaws.com/12_18_2/random/5.png,61.0,,0.0-66.0,iter_0,scenegraph-m2s,0,3960,,https://scenegraph-m2s-beth-aryan-class-project0.s3.amazonaws.com/12_18_2/random/6.png,,318381,66,plugin-m2s-task,test
62,639b98638c4fcd3ab5d82bf5,"['https://scenegraph-m2s-beth-aryan-class-project0.s3.amazonaws.com/12_13_2/random/7.png', 'https://scenegraph-m2s-beth-aryan-class-project0.s3.amazonaws.com/13_2_12/random/9.png']",True,0.0,class-project-0,4994-61393299-7f48-4fa5-8353-1a72c5bf644f,https://scenegraph-m2s-beth-aryan-class-project0.s3.amazonaws.com/13_2_12/random/9.png,https://scenegraph-m2s-beth-aryan-class-project0.s3.amazonaws.com/12_13_2/random/1.png,https://scenegraph-m2s-beth-aryan-class-project0.s3.amazonaws.com/12_13_2/random/7.png,62.0,,0.0-67.0,iter_0,scenegraph-m2s,0,11596,,https://scenegraph-m2s-beth-aryan-class-project0.s3.amazonaws.com/12_13_2/random/1.png,,330983,67,plugin-m2s-task,test
63,639b98688c4fcd3ab5d82bf6,"['https://scenegraph-m2s-beth-aryan-class-project0.s3.amazonaws.com/4_5_13/random/3.png', 'https://scenegraph-m2s-beth-aryan-class-project0.s3.amazonaws.com/4_10_12/random/3.png']",True,1.0,class-project-0,4994-61393299-7f48-4fa5-8353-1a72c5bf644f,https://scenegraph-m2s-beth-aryan-class-project0.s3.amazonaws.com/4_5_13/random/3.png,https://scenegraph-m2s-beth-aryan-class-project0.s3.amazonaws.com/4_10_12/random/9.png,https://scenegraph-m2s-beth-aryan-class-project0.s3.amazonaws.com/4_10_12/random/3.png,63.0,,0.0-68.0,iter_0,scenegraph-m2s,1,4142,,https://scenegraph-m2s-beth-aryan-class-project0.s3.amazonaws.com/4_10_12/random/9.png,,336135,68,plugin-m2s-task,test
64,639b986c8c4fcd3ab5d82bf7,"['https://scenegraph-m2s-beth-aryan-class-project0.s3.amazonaws.com/7_12_13/nonequtriangle/7.png', 'https://scenegraph-m2s-beth-aryan-class-project0.s3.amazonaws.com/4_5_14/nonequtriangle/3.png']",True,0.0,class-project-0,4994-61393299-7f48-4fa5-8353-1a72c5bf644f,https://scenegraph-m2s-beth-aryan-class-project0.s3.amazonaws.com/4_5_14/nonequtriangle/3.png,https://scenegraph-m2s-beth-aryan-class-project0.s3.amazonaws.com/7_12_13/nonequtriangle/8.png,https://scenegraph-m2s-beth-aryan-class-project0.s3.amazonaws.com/7_12_13/nonequtriangle/7.png,64.0,,0.0-69.0,iter_0,scenegraph-m2s,0,3166,,https://scenegraph-m2s-beth-aryan-class-project0.s3.amazonaws.com/7_12_13/nonequtriangle/8.png,,340313,69,plugin-m2s-task,test
65,639b98708c4fcd3ab5d82bf8,"['https://scenegraph-m2s-beth-aryan-class-project0.s3.amazonaws.com/18_5_4/nonequtriangle/2.png', 'https://scenegraph-m2s-beth-aryan-class-project0.s3.amazonaws.com/13_10_5/line/3.png']",True,0.0,class-project-0,4994-61393299-7f48-4fa5-8353-1a72c5bf644f,https://scenegraph-m2s-beth-aryan-class-project0.s3.amazonaws.com/13_10_5/line/3.png,https://scenegraph-m2s-beth-aryan-class-project0.s3.amazonaws.com/18_5_4/nonequtriangle/4.png,https://scenegraph-m2s-beth-aryan-class-project0.s3.amazonaws.com/18_5_4/nonequtriangle/2.png,65.0,,0.0-70.0,iter_0,scenegraph-m2s,0,2557,,https://scenegraph-m2s-beth-aryan-class-project0.s3.amazonaws.com/18_5_4/nonequtriangle/4.png,,343881,70,plugin-m2s-task,test
66,639b98738c4fcd3ab5d82bf9,"['https://scenegraph-m2s-beth-aryan-class-project0.s3.amazonaws.com/5_4_12/random/3.png', 'https://scenegraph-m2s-beth-aryan-class-project0.s3.amazonaws.com/13_10_7/nonequtriangle/2.png']",True,1.0,class-project-0,4994-61393299-7f48-4fa5-8353-1a72c5bf644f,https://scenegraph-m2s-beth-aryan-class-project0.s3.amazonaws.com/5_4_12/random/3.png,https://scenegraph-m2s-beth-aryan-class-project0.s3.amazonaws.com/13_10_7/nonequtriangle/3.png,https://scenegraph-m2s-beth-aryan-class-project0.s3.amazonaws.com/13_10_7/nonequtriangle/2.png,66.0,,0.0-71.0,iter_0,scenegraph-m2s,1,2639,,https://scenegraph-m2s-beth-aryan-class-project0.s3.amazonaws.com/13_10_7/nonequtriangle/3.png,,347533,71,plugin-m2s-task,test
67,639b98798c4fcd3ab5d82bfa,"['https://scenegraph-m2s-beth-aryan-class-project0.s3.amazonaws.com/10_12_2/random/9.png', 'https://scenegraph-m2s-beth-aryan-class-project0.s3.amazonaws.com/12_2_10/random/2.png']",True,1.0,class-project-0,4994-61393299-7f48-4fa5-8353-1a72c5bf644f,https://scenegraph-m2s-beth-aryan-class-project0.s3.amazonaws.com/10_12_2/random/9.png,https://scenegraph-m2s-beth-aryan-class-project0.s3.amazonaws.com/12_2_10/random/4.png,https://scenegraph-m2s-beth-aryan-class-project0.s3.amazonaws.com/12_2_10/random/2.png,67.0,,0.0-72.0,iter_0,scenegraph-m2s,1,4535,,https://scenegraph-m2s-beth-aryan-class-project0.s3.amazonaws.com/12_2_10/random/4.png,,353080,72,plugin-m2s-task,test
68,639b987e8c4fcd3ab5d82bfb,"['https://scenegraph-m2s-beth-aryan-class-project0.s3.amazonaws.com/11_7_4/random/9.png', 'https://scenegraph-m2s-beth-aryan-class-project0.s3.amazonaws.com/2_11_7/line/2.png']",True,0.0,class-project-0,4994-61393299-7f48-4fa5-8353-1a72c5bf644f,https://scenegraph-m2s-beth-aryan-class-project0.s3.amazonaws.com/2_11_7/line/2.png,https://scenegraph-m2s-beth-aryan-class-project0.s3.amazonaws.com/11_7_4/random/1.png,https://scenegraph-m2s-beth-aryan-class-project0.s3.amazonaws.com/11_7_4/random/9.png,68.0,,0.0-73.0,iter_0,scenegraph-m2s,0,4128,,https://scenegraph-m2s-beth-aryan-class-project0.s3.amazonaws.com/11_7_4/random/1.png,,358219,73,plugin-m2s-task,test
69,639b98828c4fcd3ab5d82bfc,"['https://scenegraph-m2s-beth-aryan-class-project0.s3.amazonaws.com/18_11_12/nonequtriangle/5.png', 'https://scenegraph-m2s-beth-aryan-class-project0.s3.amazonaws.com/7_2_11/random/6.png']",True,0.0,class-project-0,4994-61393299-7f48-4fa5-8353-1a72c5bf644f,https://scenegraph-m2s-beth-aryan-class-project0.s3.amazonaws.com/7_2_11/random/6.png,https://scenegraph-m2s-beth-aryan-class-project0.s3.amazonaws.com/18_11_12/nonequtriangle/1.png,https://scenegraph-m2s-beth-aryan-class-project0.s3.amazonaws.com/18_11_12/nonequtriangle/5.png,69.0,,0.0-74.0,iter_0,scenegraph-m2s,0,3248,,https://scenegraph-m2s-beth-aryan-class-project0.s3.amazonaws.com/18_11_12/nonequtriangle/1.png,,362479,74,plugin-m2s-task,test
70,639b98878c4fcd3ab5d82bfd,"['https://scenegraph-m2s-beth-aryan-class-project0.s3.amazonaws.com/2_12_7/random/6.png', 'https://scenegraph-m2s-beth-aryan-class-project0.s3.amazonaws.com/14_12_4/line/9.png']",True,0.0,class-project-0,4994-61393299-7f48-4fa5-8353-1a72c5bf644f,https://scenegraph-m2s-beth-aryan-class-project0.s3.amazonaws.com/14_12_4/line/9.png,https://scenegraph-m2s-beth-aryan-class-project0.s3.amazonaws.com/2_12_7/random/1.png,https://scenegraph-m2s-beth-aryan-class-project0.s3.amazonaws.com/2_12_7/random/6.png,70.0,,0.0-75.0,iter_0,scenegraph-m2s,0,3769,,https://scenegraph-m2s-beth-aryan-class-project0.s3.amazonaws.com/2_12_7/random/1.png,,367261,75,plugin-m2s-task,test
71,639b988c8c4fcd3ab5d82bfe,"['https://scenegraph-m2s-beth-aryan-class-project0.s3.amazonaws.com/14_7_13/random/4.png', 'https://scenegraph-m2s-beth-aryan-class-project0.s3.amazonaws.com/14_10_4/random/1.png']",True,0.0,class-project-0,4994-61393299-7f48-4fa5-8353-1a72c5bf644f,https://scenegraph-m2s-beth-aryan-class-project0.s3.amazonaws.com/14_10_4/random/1.png,https://scenegraph-m2s-beth-aryan-class-project0.s3.amazonaws.com/14_7_13/random/6.png,https://scenegraph-m2s-beth-aryan-class-project0.s3.amazonaws.com/14_7_13/random/4.png,71.0,,0.0-76.0,iter_0,scenegraph-m2s,0,4242,,https://scenegraph-m2s-beth-aryan-class-project0.s3.amazonaws.com/14_7_13/random/6.png,,372515,76,plugin-m2s-task,test
72,639b98998c4fcd3ab5d82bff,"['https://scenegraph-m2s-beth-aryan-class-project0.s3.amazonaws.com/4_11_14/nonequtriangle/2.png', 'https://scenegraph-m2s-beth-aryan-class-project0.s3.amazonaws.com/11_4_14/nonequtriangle/1.png']",False,1.0,class-project-0,4994-61393299-7f48-4fa5-8353-1a72c5bf644f,https://scenegraph-m2s-beth-aryan-class-project0.s3.amazonaws.com/4_11_14/nonequtriangle/2.png,https://scenegraph-m2s-beth-aryan-class-project0.s3.amazonaws.com/11_4_14/nonequtriangle/6.png,https://scenegraph-m2s-beth-aryan-class-project0.s3.amazonaws.com/11_4_14/nonequtriangle/1.png,72.0,,0.0-77.0,iter_0,scenegraph-m2s,0,11668,,https://scenegraph-m2s-beth-aryan-class-project0.s3.amazonaws.com/11_4_14/nonequtriangle/6.png,,385193,77,plugin-m2s-task,test
73,639b989c8c4fcd3ab5d82c00,"['https://scenegraph-m2s-beth-aryan-class-project0.s3.amazonaws.com/10_5_2/random/7.png', 'https://scenegraph-m2s-beth-aryan-class-project0.s3.amazonaws.com/13_5_14/nonequtriangle/1.png']",False,0.0,class-project-0,4994-61393299-7f48-4fa5-8353-1a72c5bf644f,https://scenegraph-m2s-beth-aryan-class-project0.s3.amazonaws.com/13_5_14/nonequtriangle/1.png,https://scenegraph-m2s-beth-aryan-class-project0.s3.amazonaws.com/10_5_2/random/1.png,https://scenegraph-m2s-beth-aryan-class-project0.s3.amazonaws.com/10_5_2/random/7.png,73.0,,0.0-78.0,iter_0,scenegraph-m2s,1,2031,,https://scenegraph-m2s-beth-aryan-class-project0.s3.amazonaws.com/10_5_2/random/1.png,,388237,78,plugin-m2s-task,test
74,639b98a18c4fcd3ab5d82c01,"['https://scenegraph-m2s-beth-aryan-class-project0.s3.amazonaws.com/12_10_5/line/6.png', 'https://scenegraph-m2s-beth-aryan-class-project0.s3.amazonaws.com/10_12_5/nonequtriangle/7.png']",True,1.0,class-project-0,4994-61393299-7f48-4fa5-8353-1a72c5bf644f,https://scenegraph-m2s-beth-aryan-class-project0.s3.amazonaws.com/12_10_5/line/6.png,https://scenegraph-m2s-beth-aryan-class-project0.s3.amazonaws.com/10_12_5/nonequtriangle/3.png,https://scenegraph-m2s-beth-aryan-class-project0.s3.amazonaws.com/10_12_5/nonequtriangle/7.png,74.0,,0.0-79.0,iter_0,scenegraph-m2s,1,3611,,https://scenegraph-m2s-beth-aryan-class-project0.s3.amazonaws.com/10_12_5/nonequtriangle/3.png,,392860,79,plugin-m2s-task,test
75,639b98a68c4fcd3ab5d82c02,"['https://scenegraph-m2s-beth-aryan-class-project0.s3.amazonaws.com/5_14_2/nonequtriangle/5.png', 'https://scenegraph-m2s-beth-aryan-class-project0.s3.amazonaws.com/14_2_5/nonequtriangle/6.png']",True,1.0,class-project-0,4994-61393299-7f48-4fa5-8353-1a72c5bf644f,https://scenegraph-m2s-beth-aryan-class-project0.s3.amazonaws.com/5_14_2/nonequtriangle/5.png,https://scenegraph-m2s-beth-aryan-class-project0.s3.amazonaws.com/14_2_5/nonequtriangle/4.png,https://scenegraph-m2s-beth-aryan-class-project0.s3.amazonaws.com/14_2_5/nonequtriangle/6.png,75.0,,0.0-80.0,iter_0,scenegraph-m2s,1,4557,,https://scenegraph-m2s-beth-aryan-class-project0.s3.amazonaws.com/14_2_5/nonequtriangle/4.png,,398427,80,plugin-m2s-task,test
76,639b98b28c4fcd3ab5d82c03,"['https://scenegraph-m2s-beth-aryan-class-project0.s3.amazonaws.com/18_2_4/random/2.png', 'https://scenegraph-m2s-beth-aryan-class-project0.s3.amazonaws.com/4_18_2/random/4.png']",True,1.0,class-project-0,4994-61393299-7f48-4fa5-8353-1a72c5bf644f,https://scenegraph-m2s-beth-aryan-class-project0.s3.amazonaws.com/18_2_4/random/2.png,https://scenegraph-m2s-beth-aryan-class-project0.s3.amazonaws.com/4_18_2/random/9.png,https://scenegraph-m2s-beth-aryan-class-project0.s3.amazonaws.com/4_18_2/random/4.png,76.0,,0.0-81.0,iter_0,scenegraph-m2s,1,11120,,https://scenegraph-m2s-beth-aryan-class-project0.s3.amazonaws.com/4_18_2/random/9.png,,410560,81,plugin-m2s-task,test
77,639b98b58c4fcd3ab5d82c04,"['https://scenegraph-m2s-beth-aryan-class-project0.s3.amazonaws.com/14_4_11/line/1.png', 'https://scenegraph-m2s-beth-aryan-class-project0.s3.amazonaws.com/4_11_14/random/5.png']",True,0.0,class-project-0,4994-61393299-7f48-4fa5-8353-1a72c5bf644f,https://scenegraph-m2s-beth-aryan-class-project0.s3.amazonaws.com/4_11_14/random/5.png,https://scenegraph-m2s-beth-aryan-class-project0.s3.amazonaws.com/14_4_11/line/5.png,https://scenegraph-m2s-beth-aryan-class-project0.s3.amazonaws.com/14_4_11/line/1.png,77.0,,0.0-82.0,iter_0,scenegraph-m2s,0,2139,,https://scenegraph-m2s-beth-aryan-class-project0.s3.amazonaws.com/14_4_11/line/5.png,,413709,82,plugin-m2s-task,test
78,639b98b88c4fcd3ab5d82c05,"['https://scenegraph-m2s-beth-aryan-class-project0.s3.amazonaws.com/10_14_13/line/2.png', 'https://scenegraph-m2s-beth-aryan-class-project0.s3.amazonaws.com/11_14_5/line/6.png']",True,0.0,class-project-0,4994-61393299-7f48-4fa5-8353-1a72c5bf644f,https://scenegraph-m2s-beth-aryan-class-project0.s3.amazonaws.com/11_14_5/line/6.png,https://scenegraph-m2s-beth-aryan-class-project0.s3.amazonaws.com/10_14_13/line/4.png,https://scenegraph-m2s-beth-aryan-class-project0.s3.amazonaws.com/10_14_13/line/2.png,78.0,,0.0-83.0,iter_0,scenegraph-m2s,0,1526,,https://scenegraph-m2s-beth-aryan-class-project0.s3.amazonaws.com/10_14_13/line/4.png,,416243,83,plugin-m2s-task,test
79,639b98be8c4fcd3ab5d82c06,"['https://scenegraph-m2s-beth-aryan-class-project0.s3.amazonaws.com/5_4_2/nonequtriangle/9.png', 'https://scenegraph-m2s-beth-aryan-class-project0.s3.amazonaws.com/5_2_4/line/5.png']",True,0.0,class-project-0,4994-61393299-7f48-4fa5-8353-1a72c5bf644f,https://scenegraph-m2s-beth-aryan-class-project0.s3.amazonaws.com/5_2_4/line/5.png,https://scenegraph-m2s-beth-aryan-class-project0.s3.amazonaws.com/5_4_2/nonequtriangle/3.png,https://scenegraph-m2s-beth-aryan-class-project0.s3.amazonaws.com/5_4_2/nonequtriangle/9.png,79.0,,0.0-84.0,iter_0,scenegraph-m2s,0,4895,,https://scenegraph-m2s-beth-aryan-class-project0.s3.amazonaws.com/5_4_2/nonequtriangle/3.png,,422151,84,plugin-m2s-task,test
80,639b98c18c4fcd3ab5d82c07,"['https://scenegraph-m2s-beth-aryan-class-project0.s3.amazonaws.com/12_10_4/nonequtriangle/8.png', 'https://scenegraph-m2s-beth-aryan-class-project0.s3.amazonaws.com/10_11_14/line/4.png']",True,0.0,class-project-0,4994-61393299-7f48-4fa5-8353-1a72c5bf644f,https://scenegraph-m2s-beth-aryan-class-project0.s3.amazonaws.com/10_11_14/line/4.png,https://scenegraph-m2s-beth-aryan-class-project0.s3.amazonaws.com/12_10_4/nonequtriangle/4.png,https://scenegraph-m2s-beth-aryan-class-project0.s3.amazonaws.com/12_10_4/nonequtriangle/8.png,80.0,,0.0-85.0,iter_0,scenegraph-m2s,0,1795,,https://scenegraph-m2s-beth-aryan-class-project0.s3.amazonaws.com/12_10_4/nonequtriangle/4.png,,424960,85,plugin-m2s-task,test
81,639b98c48c4fcd3ab5d82c08,"['https://scenegraph-m2s-beth-aryan-class-project0.s3.amazonaws.com/7_10_11/line/8.png', 'https://scenegraph-m2s-beth-aryan-class-project0.s3.amazonaws.com/5_12_13/nonequtriangle/9.png']",True,0.0,class-project-0,4994-61393299-7f48-4fa5-8353-1a72c5bf644f,https://scenegraph-m2s-beth-aryan-class-project0.s3.amazonaws.com/5_12_13/nonequtriangle/9.png,https://scenegraph-m2s-beth-aryan-class-project0.s3.amazonaws.com/7_10_11/line/7.png,https://scenegraph-m2s-beth-aryan-class-project0.s3.amazonaws.com/7_10_11/line/8.png,81.0,,0.0-86.0,iter_0,scenegraph-m2s,0,2398,,https://scenegraph-m2s-beth-aryan-class-project0.s3.amazonaws.com/7_10_11/line/7.png,,428370,86,plugin-m2s-task,test
82,639b98c88c4fcd3ab5d82c09,"['https://scenegraph-m2s-beth-aryan-class-project0.s3.amazonaws.com/13_18_12/line/3.png', 'https://scenegraph-m2s-beth-aryan-class-project0.s3.amazonaws.com/12_13_18/line/1.png']",True,0.0,class-project-0,4994-61393299-7f48-4fa5-8353-1a72c5bf644f,https://scenegraph-m2s-beth-aryan-class-project0.s3.amazonaws.com/12_13_18/line/1.png,https://scenegraph-m2s-beth-aryan-class-project0.s3.amazonaws.com/13_18_12/line/9.png,https://scenegraph-m2s-beth-aryan-class-project0.s3.amazonaws.com/13_18_12/line/3.png,82.0,,0.0-87.0,iter_0,scenegraph-m2s,0,2550,,https://scenegraph-m2s-beth-aryan-class-project0.s3.amazonaws.com/13_18_12/line/9.png,,431934,87,plugin-m2s-task,test
83,639b98cb8c4fcd3ab5d82c0a,"['https://scenegraph-m2s-beth-aryan-class-project0.s3.amazonaws.com/12_11_2/nonequtriangle/3.png', 'https://scenegraph-m2s-beth-aryan-class-project0.s3.amazonaws.com/4_7_13/line/5.png']",True,1.0,class-project-0,4994-61393299-7f48-4fa5-8353-1a72c5bf644f,https://scenegraph-m2s-beth-aryan-class-project0.s3.amazonaws.com/12_11_2/nonequtriangle/3.png,https://scenegraph-m2s-beth-aryan-class-project0.s3.amazonaws.com/4_7_13/line/1.png,https://scenegraph-m2s-beth-aryan-class-project0.s3.amazonaws.com/4_7_13/line/5.png,83.0,,0.0-88.0,iter_0,scenegraph-m2s,1,2201,,https://scenegraph-m2s-beth-aryan-class-project0.s3.amazonaws.com/4_7_13/line/1.png,,435148,88,plugin-m2s-task,test
84,639b98ce8c4fcd3ab5d82c0b,"['https://scenegraph-m2s-beth-aryan-class-project0.s3.amazonaws.com/5_12_13/line/6.png', 'https://scenegraph-m2s-beth-aryan-class-project0.s3.amazonaws.com/10_4_11/line/3.png']",True,1.0,class-project-0,4994-61393299-7f48-4fa5-8353-1a72c5bf644f,https://scenegraph-m2s-beth-aryan-class-project0.s3.amazonaws.com/5_12_13/line/6.png,https://scenegraph-m2s-beth-aryan-class-project0.s3.amazonaws.com/10_4_11/line/6.png,https://scenegraph-m2s-beth-aryan-class-project0.s3.amazonaws.com/10_4_11/line/3.png,84.0,,0.0-89.0,iter_0,scenegraph-m2s,1,2434,,https://scenegraph-m2s-beth-aryan-class-project0.s3.amazonaws.com/10_4_11/line/6.png,,438592,89,plugin-m2s-task,test
85,639b98d38c4fcd3ab5d82c0c,"['https://scenegraph-m2s-beth-aryan-class-project0.s3.amazonaws.com/12_11_14/line/8.png', 'https://scenegraph-m2s-beth-aryan-class-project0.s3.amazonaws.com/14_11_12/random/3.png']",True,1.0,class-project-0,4994-61393299-7f48-4fa5-8353-1a72c5bf644f,https://scenegraph-m2s-beth-aryan-class-project0.s3.amazonaws.com/12_11_14/line/8.png,https://scenegraph-m2s-beth-aryan-class-project0.s3.amazonaws.com/14_11_12/random/4.png,https://scenegraph-m2s-beth-aryan-class-project0.s3.amazonaws.com/14_11_12/random/3.png,85.0,,0.0-90.0,iter_0,scenegraph-m2s,1,4163,,https://scenegraph-m2s-beth-aryan-class-project0.s3.amazonaws.com/14_11_12/random/4.png,,443768,90,plugin-m2s-task,test
86,639b98df8c4fcd3ab5d82c0d,"['https://scenegraph-m2s-beth-aryan-class-project0.s3.amazonaws.com/12_4_7/random/9.png', 'https://scenegraph-m2s-beth-aryan-class-project0.s3.amazonaws.com/4_12_7/random/6.png']",True,0.0,class-project-0,4994-61393299-7f48-4fa5-8353-1a72c5bf644f,https://scenegraph-m2s-beth-aryan-class-project0.s3.amazonaws.com/4_12_7/random/6.png,https://scenegraph-m2s-beth-aryan-class-project0.s3.amazonaws.com/12_4_7/random/6.png,https://scenegraph-m2s-beth-aryan-class-project0.s3.amazonaws.com/12_4_7/random/9.png,86.0,,0.0-91.0,iter_0,scenegraph-m2s,0,10888,,https://scenegraph-m2s-beth-aryan-class-project0.s3.amazonaws.com/12_4_7/random/6.png,,455671,91,plugin-m2s-task,test
87,639b98e38c4fcd3ab5d82c0e,"['https://scenegraph-m2s-beth-aryan-class-project0.s3.amazonaws.com/11_13_4/random/5.png', 'https://scenegraph-m2s-beth-aryan-class-project0.s3.amazonaws.com/2_18_13/random/3.png']",True,1.0,class-project-0,4994-61393299-7f48-4fa5-8353-1a72c5bf644f,https://scenegraph-m2s-beth-aryan-class-project0.s3.amazonaws.com/11_13_4/random/5.png,https://scenegraph-m2s-beth-aryan-class-project0.s3.amazonaws.com/2_18_13/random/2.png,https://scenegraph-m2s-beth-aryan-class-project0.s3.amazonaws.com/2_18_13/random/3.png,87.0,,0.0-92.0,iter_0,scenegraph-m2s,1,2951,,https://scenegraph-m2s-beth-aryan-class-project0.s3.amazonaws.com/2_18_13/random/2.png,,459634,92,plugin-m2s-task,test
88,639b98e88c4fcd3ab5d82c0f,"['https://scenegraph-m2s-beth-aryan-class-project0.s3.amazonaws.com/13_5_14/random/1.png', 'https://scenegraph-m2s-beth-aryan-class-project0.s3.amazonaws.com/7_11_10/random/5.png']",True,0.0,class-project-0,4994-61393299-7f48-4fa5-8353-1a72c5bf644f,https://scenegraph-m2s-beth-aryan-class-project0.s3.amazonaws.com/7_11_10/random/5.png,https://scenegraph-m2s-beth-aryan-class-project0.s3.amazonaws.com/13_5_14/random/2.png,https://scenegraph-m2s-beth-aryan-class-project0.s3.amazonaws.com/13_5_14/random/1.png,88.0,,0.0-93.0,iter_0,scenegraph-m2s,0,3231,,https://scenegraph-m2s-beth-aryan-class-project0.s3.amazonaws.com/13_5_14/random/2.png,,463878,93,plugin-m2s-task,test
89,639b98ef8c4fcd3ab5d82c10,"['https://scenegraph-m2s-beth-aryan-class-project0.s3.amazonaws.com/4_10_18/nonequtriangle/3.png', 'https://scenegraph-m2s-beth-aryan-class-project0.s3.amazonaws.com/10_4_18/random/9.png']",True,0.0,class-project-0,4994-61393299-7f48-4fa5-8353-1a72c5bf644f,https://scenegraph-m2s-beth-aryan-class-project0.s3.amazonaws.com/10_4_18/random/9.png,https://scenegraph-m2s-beth-aryan-class-project0.s3.amazonaws.com/4_10_18/nonequtriangle/1.png,https://scenegraph-m2s-beth-aryan-class-project0.s3.amazonaws.com/4_10_18/nonequtriangle/3.png,89.0,,0.0-94.0,iter_0,scenegraph-m2s,0,5929,,https://scenegraph-m2s-beth-aryan-class-project0.s3.amazonaws.com/4_10_18/nonequtriangle/1.png,,470820,94,plugin-m2s-task,test
90,639b98f58c4fcd3ab5d82c11,"['https://scenegraph-m2s-beth-aryan-class-project0.s3.amazonaws.com/13_2_5/nonequtriangle/6.png', 'https://scenegraph-m2s-beth-aryan-class-project0.s3.amazonaws.com/13_2_5/random/7.png']",True,0.0,class-project-0,4994-61393299-7f48-4fa5-8353-1a72c5bf644f,https://scenegraph-m2s-beth-aryan-class-project0.s3.amazonaws.com/13_2_5/random/7.png,https://scenegraph-m2s-beth-aryan-class-project0.s3.amazonaws.com/13_2_5/nonequtriangle/3.png,https://scenegraph-m2s-beth-aryan-class-project0.s3.amazonaws.com/13_2_5/nonequtriangle/6.png,90.0,,0.0-95.0,iter_0,scenegraph-m2s,0,5636,,https://scenegraph-m2s-beth-aryan-class-project0.s3.amazonaws.com/13_2_5/nonequtriangle/3.png,,477469,95,plugin-m2s-task,test
91,639b98f98c4fcd3ab5d82c12,"['https://scenegraph-m2s-beth-aryan-class-project0.s3.amazonaws.com/11_5_7/line/8.png', 'https://scenegraph-m2s-beth-aryan-class-project0.s3.amazonaws.com/12_10_7/random/3.png']",True,1.0,class-project-0,4994-61393299-7f48-4fa5-8353-1a72c5bf644f,https://scenegraph-m2s-beth-aryan-class-project0.s3.amazonaws.com/11_5_7/line/8.png,https://scenegraph-m2s-beth-aryan-class-project0.s3.amazonaws.com/12_10_7/random/9.png,https://scenegraph-m2s-beth-aryan-class-project0.s3.amazonaws.com/12_10_7/random/3.png,91.0,,0.0-96.0,iter_0,scenegraph-m2s,1,2552,,https://scenegraph-m2s-beth-aryan-class-project0.s3.amazonaws.com/12_10_7/random/9.png,,481033,96,plugin-m2s-task,test
92,639b98fe8c4fcd3ab5d82c13,"['https://scenegraph-m2s-beth-aryan-class-project0.s3.amazonaws.com/2_11_5/line/5.png', 'https://scenegraph-m2s-beth-aryan-class-project0.s3.amazonaws.com/11_2_5/line/2.png']",True,1.0,class-project-0,4994-61393299-7f48-4fa5-8353-1a72c5bf644f,https://scenegraph-m2s-beth-aryan-class-project0.s3.amazonaws.com/2_11_5/line/5.png,https://scenegraph-m2s-beth-aryan-class-project0.s3.amazonaws.com/11_2_5/line/9.png,https://scenegraph-m2s-beth-aryan-class-project0.s3.amazonaws.com/11_2_5/line/2.png,92.0,,0.0-97.0,iter_0,scenegraph-m2s,1,4697,,https://scenegraph-m2s-beth-aryan-class-project0.s3.amazonaws.com/11_2_5/line/9.png,,486743,97,plugin-m2s-task,test
93,639b99018c4fcd3ab5d82c14,"['https://scenegraph-m2s-beth-aryan-class-project0.s3.amazonaws.com/13_18_12/nonequtriangle/7.png', 'https://scenegraph-m2s-beth-aryan-class-project0.s3.amazonaws.com/12_7_5/nonequtriangle/4.png']",True,0.0,class-project-0,4994-61393299-7f48-4fa5-8353-1a72c5bf644f,https://scenegraph-m2s-beth-aryan-class-project0.s3.amazonaws.com/12_7_5/nonequtriangle/4.png,https://scenegraph-m2s-beth-aryan-class-project0.s3.amazonaws.com/13_18_12/nonequtriangle/8.png,https://scenegraph-m2s-beth-aryan-class-project0.s3.amazonaws.com/13_18_12/nonequtriangle/7.png,93.0,,0.0-98.0,iter_0,scenegraph-m2s,0,1692,,https://scenegraph-m2s-beth-aryan-class-project0.s3.amazonaws.com/13_18_12/nonequtriangle/8.png,,489447,98,plugin-m2s-task,test
94,639b99048c4fcd3ab5d82c15,"['https://scenegraph-m2s-beth-aryan-class-project0.s3.amazonaws.com/2_18_4/line/6.png', 'https://scenegraph-m2s-beth-aryan-class-project0.s3.amazonaws.com/7_10_18/random/9.png']",True,0.0,class-project-0,4994-61393299-7f48-4fa5-8353-1a72c5bf644f,https://scenegraph-m2s-beth-aryan-class-project0.s3.amazonaws.com/7_10_18/random/9.png,https://scenegraph-m2s-beth-aryan-class-project0.s3.amazonaws.com/2_18_4/line/7.png,https://scenegraph-m2s-beth-aryan-class-project0.s3.amazonaws.com/2_18_4/line/6.png,94.0,,0.0-99.0,iter_0,scenegraph-m2s,0,1734,,https://scenegraph-m2s-beth-aryan-class-project0.s3.amazonaws.com/2_18_4/line/7.png,,492193,99,plugin-m2s-task,test
95,639b99098c4fcd3ab5d82c16,"['https://scenegraph-m2s-beth-aryan-class-project0.s3.amazonaws.com/7_5_14/line/5.png', 'https://scenegraph-m2s-beth-aryan-class-project0.s3.amazonaws.com/14_7_5/line/4.png']",True,1.0,class-project-0,4994-61393299-7f48-4fa5-8353-1a72c5bf644f,https://scenegraph-m2s-beth-aryan-class-project0.s3.amazonaws.com/7_5_14/line/5.png,https://scenegraph-m2s-beth-aryan-class-project0.s3.amazonaws.com/14_7_5/line/7.png,https://scenegraph-m2s-beth-aryan-class-project0.s3.amazonaws.com/14_7_5/line/4.png,95.0,,0.0-100.0,iter_0,scenegraph-m2s,1,4452,,https://scenegraph-m2s-beth-aryan-class-project0.s3.amazonaws.com/14_7_5/line/7.png,,497658,100,plugin-m2s-task,test
96,639b990e8c4fcd3ab5d82c17,"['https://scenegraph-m2s-beth-aryan-class-project0.s3.amazonaws.com/14_4_7/line/1.png', 'https://scenegraph-m2s-beth-aryan-class-project0.s3.amazonaws.com/4_7_14/random/1.png']",True,0.0,class-project-0,4994-61393299-7f48-4fa5-8353-1a72c5bf644f,https://scenegraph-m2s-beth-aryan-class-project0.s3.amazonaws.com/4_7_14/random/1.png,https://scenegraph-m2s-beth-aryan-class-project0.s3.amazonaws.com/14_4_7/line/2.png,https://scenegraph-m2s-beth-aryan-class-project0.s3.amazonaws.com/14_4_7/line/1.png,96.0,,0.0-101.0,iter_0,scenegraph-m2s,0,3466,,https://scenegraph-m2s-beth-aryan-class-project0.s3.amazonaws.com/14_4_7/line/2.png,,502137,101,plugin-m2s-task,test
97,639b99118c4fcd3ab5d82c18,"['https://scenegraph-m2s-beth-aryan-class-project0.s3.amazonaws.com/18_2_11/nonequtriangle/1.png', 'https://scenegraph-m2s-beth-aryan-class-project0.s3.amazonaws.com/2_18_13/line/9.png']",True,0.0,class-project-0,4994-61393299-7f48-4fa5-8353-1a72c5bf644f,https://scenegraph-m2s-beth-aryan-class-project0.s3.amazonaws.com/2_18_13/line/9.png,https://scenegraph-m2s-beth-aryan-class-project0.s3.amazonaws.com/18_2_11/nonequtriangle/6.png,https://scenegraph-m2s-beth-aryan-class-project0.s3.amazonaws.com/18_2_11/nonequtriangle/1.png,97.0,,0.0-102.0,iter_0,scenegraph-m2s,0,1878,,https://scenegraph-m2s-beth-aryan-class-project0.s3.amazonaws.com/18_2_11/nonequtriangle/6.png,,505028,102,plugin-m2s-task,test
98,639b99138c4fcd3ab5d82c19,"['https://scenegraph-m2s-beth-aryan-class-project0.s3.amazonaws.com/14_2_13/line/9.png', 'https://scenegraph-m2s-beth-aryan-class-project0.s3.amazonaws.com/10_4_2/line/2.png']",True,0.0,class-project-0,4994-61393299-7f48-4fa5-8353-1a72c5bf644f,https://scenegraph-m2s-beth-aryan-class-project0.s3.amazonaws.com/10_4_2/line/2.png,https://scenegraph-m2s-beth-aryan-class-project0.s3.amazonaws.com/14_2_13/line/1.png,https://scenegraph-m2s-beth-aryan-class-project0.s3.amazonaws.com/14_2_13/line/9.png,98.0,,0.0-103.0,iter_0,scenegraph-m2s,0,1352,,https://scenegraph-m2s-beth-aryan-class-project0.s3.amazonaws.com/14_2_13/line/1.png,,507392,103,plugin-m2s-task,test
99,639b99168c4fcd3ab5d82c1a,"['https://scenegraph-m2s-beth-aryan-class-project0.s3.amazonaws.com/14_18_5/nonequtriangle/3.png', 'https://scenegraph-m2s-beth-aryan-class-project0.s3.amazonaws.com/4_11_2/line/2.png']",True,1.0,class-project-0,4994-61393299-7f48-4fa5-8353-1a72c5bf644f,https://scenegraph-m2s-beth-aryan-class-project0.s3.amazonaws.com/14_18_5/nonequtriangle/3.png,https://scenegraph-m2s-beth-aryan-class-project0.s3.amazonaws.com/4_11_2/line/6.png,https://scenegraph-m2s-beth-aryan-class-project0.s3.amazonaws.com/4_11_2/line/2.png,99.0,,0.0-104.0,iter_0,scenegraph-m2s,1,2383,,https://scenegraph-m2s-beth-aryan-class-project0.s3.amazonaws.com/4_11_2/line/6.png,,510787,104,plugin-m2s-task,test
100,639b991c8c4fcd3ab5d82c1b,"['https://scenegraph-m2s-beth-aryan-class-project0.s3.amazonaws.com/4_13_11/nonequtriangle/3.png', 'https://scenegraph-m2s-beth-aryan-class-project0.s3.amazonaws.com/11_12_10/nonequtriangle/7.png']",True,1.0,class-project-0,4994-61393299-7f48-4fa5-8353-1a72c5bf644f,https://scenegraph-m2s-beth-aryan-class-project0.s3.amazonaws.com/4_13_11/nonequtriangle/3.png,https://scenegraph-m2s-beth-aryan-class-project0.s3.amazonaws.com/11_12_10/nonequtriangle/5.png,https://scenegraph-m2s-beth-aryan-class-project0.s3.amazonaws.com/11_12_10/nonequtriangle/7.png,100.0,,0.0-105.0,iter_0,scenegraph-m2s,1,4502,,https://scenegraph-m2s-beth-aryan-class-project0.s3.amazonaws.com/11_12_10/nonequtriangle/5.png,,516302,105,plugin-m2s-task,test
101,639b99218c4fcd3ab5d82c1c,"['https://scenegraph-m2s-beth-aryan-class-project0.s3.amazonaws.com/12_7_13/line/1.png', 'https://scenegraph-m2s-beth-aryan-class-project0.s3.amazonaws.com/12_4_13/line/4.png']",True,1.0,class-project-0,4994-61393299-7f48-4fa5-8353-1a72c5bf644f,https://scenegraph-m2s-beth-aryan-class-project0.s3.amazonaws.com/12_7_13/line/1.png,https://scenegraph-m2s-beth-aryan-class-project0.s3.amazonaws.com/12_4_13/line/7.png,https://scenegraph-m2s-beth-aryan-class-project0.s3.amazonaws.com/12_4_13/line/4.png,101.0,,0.0-106.0,iter_0,scenegraph-m2s,1,4448,,https://scenegraph-m2s-beth-aryan-class-project0.s3.amazonaws.com/12_4_13/line/7.png,,521763,106,plugin-m2s-task,test
102,639b99248c4fcd3ab5d82c1d,"['https://scenegraph-m2s-beth-aryan-class-project0.s3.amazonaws.com/2_12_11/random/9.png', 'https://scenegraph-m2s-beth-aryan-class-project0.s3.amazonaws.com/7_11_5/random/6.png']",True,1.0,class-project-0,4994-61393299-7f48-4fa5-8353-1a72c5bf644f,https://scenegraph-m2s-beth-aryan-class-project0.s3.amazonaws.com/2_12_11/random/9.png,https://scenegraph-m2s-beth-aryan-class-project0.s3.amazonaws.com/7_11_5/random/2.png,https://scenegraph-m2s-beth-aryan-class-project0.s3.amazonaws.com/7_11_5/random/6.png,102.0,,0.0-107.0,iter_0,scenegraph-m2s,1,1351,,https://scenegraph-m2s-beth-aryan-class-project0.s3.amazonaws.com/7_11_5/random/2.png,,524126,107,plugin-m2s-task,test
103,639b99278c4fcd3ab5d82c1e,"['https://scenegraph-m2s-beth-aryan-class-project0.s3.amazonaws.com/18_10_11/line/2.png', 'https://scenegraph-m2s-beth-aryan-class-project0.s3.amazonaws.com/11_18_10/random/1.png']",True,1.0,class-project-0,4994-61393299-7f48-4fa5-8353-1a72c5bf644f,https://scenegraph-m2s-beth-aryan-class-project0.s3.amazonaws.com/18_10_11/line/2.png,https://scenegraph-m2s-beth-aryan-class-project0.s3.amazonaws.com/11_18_10/random/8.png,https://scenegraph-m2s-beth-aryan-class-project0.s3.amazonaws.com/11_18_10/random/1.png,103.0,,0.0-108.0,iter_0,scenegraph-m2s,1,2164,,https://scenegraph-m2s-beth-aryan-class-project0.s3.amazonaws.com/11_18_10/random/8.png,,527302,108,plugin-m2s-task,test
104,639b992a8c4fcd3ab5d82c1f,"['https://scenegraph-m2s-beth-aryan-class-project0.s3.amazonaws.com/13_14_18/nonequtriangle/9.png', 'https://scenegraph-m2s-beth-aryan-class-project0.s3.amazonaws.com/14_11_7/nonequtriangle/3.png']",True,0.0,class-project-0,4994-61393299-7f48-4fa5-8353-1a72c5bf644f,https://scenegraph-m2s-beth-aryan-class-project0.s3.amazonaws.com/14_11_7/nonequtriangle/3.png,https://scenegraph-m2s-beth-aryan-class-project0.s3.amazonaws.com/13_14_18/nonequtriangle/4.png,https://scenegraph-m2s-beth-aryan-class-project0.s3.amazonaws.com/13_14_18/nonequtriangle/9.png,104.0,,0.0-109.0,iter_0,scenegraph-m2s,0,1870,,https://scenegraph-m2s-beth-aryan-class-project0.s3.amazonaws.com/13_14_18/nonequtriangle/4.png,,530185,109,plugin-m2s-task,test
105,639b992c8c4fcd3ab5d82c20,"['https://scenegraph-m2s-beth-aryan-class-project0.s3.amazonaws.com/4_13_2/random/4.png', 'https://scenegraph-m2s-beth-aryan-class-project0.s3.amazonaws.com/5_7_12/random/6.png']",True,1.0,class-project-0,4994-61393299-7f48-4fa5-8353-1a72c5bf644f,https://scenegraph-m2s-beth-aryan-class-project0.s3.amazonaws.com/4_13_2/random/4.png,https://scenegraph-m2s-beth-aryan-class-project0.s3.amazonaws.com/5_7_12/random/7.png,https://scenegraph-m2s-beth-aryan-class-project0.s3.amazonaws.com/5_7_12/random/6.png,105.0,,0.0-110.0,iter_0,scenegraph-m2s,1,1503,,https://scenegraph-m2s-beth-aryan-class-project0.s3.amazonaws.com/5_7_12/random/7.png,,532696,110,plugin-m2s-task,test
106,639b99308c4fcd3ab5d82c21,"['https://scenegraph-m2s-beth-aryan-class-project0.s3.amazonaws.com/7_13_11/line/8.png', 'https://scenegraph-m2s-beth-aryan-class-project0.s3.amazonaws.com/11_13_12/line/9.png']",True,0.0,class-project-0,4994-61393299-7f48-4fa5-8353-1a72c5bf644f,https://scenegraph-m2s-beth-aryan-class-project0.s3.amazonaws.com/11_13_12/line/9.png,https://scenegraph-m2s-beth-aryan-class-project0.s3.amazonaws.com/7_13_11/line/9.png,https://scenegraph-m2s-beth-aryan-class-project0.s3.amazonaws.com/7_13_11/line/8.png,106.0,,0.0-111.0,iter_0,scenegraph-m2s,0,2539,,https://scenegraph-m2s-beth-aryan-class-project0.s3.amazonaws.com/7_13_11/line/9.png,,536243,111,plugin-m2s-task,test
107,639b99338c4fcd3ab5d82c22,"['https://scenegraph-m2s-beth-aryan-class-project0.s3.amazonaws.com/2_7_12/nonequtriangle/8.png', 'https://scenegraph-m2s-beth-aryan-class-project0.s3.amazonaws.com/2_12_7/line/3.png']",True,0.0,class-project-0,4994-61393299-7f48-4fa5-8353-1a72c5bf644f,https://scenegraph-m2s-beth-aryan-class-project0.s3.amazonaws.com/2_12_7/line/3.png,https://scenegraph-m2s-beth-aryan-class-project0.s3.amazonaws.com/2_7_12/nonequtriangle/5.png,https://scenegraph-m2s-beth-aryan-class-project0.s3.amazonaws.com/2_7_12/nonequtriangle/8.png,107.0,,0.0-112.0,iter_0,scenegraph-m2s,0,2147,,https://scenegraph-m2s-beth-aryan-class-project0.s3.amazonaws.com/2_7_12/nonequtriangle/5.png,,539402,112,plugin-m2s-task,test
108,639b99368c4fcd3ab5d82c23,"['https://scenegraph-m2s-beth-aryan-class-project0.s3.amazonaws.com/2_11_5/random/1.png', 'https://scenegraph-m2s-beth-aryan-class-project0.s3.amazonaws.com/4_10_13/line/7.png']",True,0.0,class-project-0,4994-61393299-7f48-4fa5-8353-1a72c5bf644f,https://scenegraph-m2s-beth-aryan-class-project0.s3.amazonaws.com/4_10_13/line/7.png,https://scenegraph-m2s-beth-aryan-class-project0.s3.amazonaws.com/2_11_5/random/6.png,https://scenegraph-m2s-beth-aryan-class-project0.s3.amazonaws.com/2_11_5/random/1.png,108.0,,0.0-113.0,iter_0,scenegraph-m2s,0,1838,,https://scenegraph-m2s-beth-aryan-class-project0.s3.amazonaws.com/2_11_5/random/6.png,,542252,113,plugin-m2s-task,test
109,639b993a8c4fcd3ab5d82c24,"['https://scenegraph-m2s-beth-aryan-class-project0.s3.amazonaws.com/12_14_7/line/5.png', 'https://scenegraph-m2s-beth-aryan-class-project0.s3.amazonaws.com/7_14_12/nonequtriangle/7.png']",True,0.0,class-project-0,4994-61393299-7f48-4fa5-8353-1a72c5bf644f,https://scenegraph-m2s-beth-aryan-class-project0.s3.amazonaws.com/7_14_12/nonequtriangle/7.png,https://scenegraph-m2s-beth-aryan-class-project0.s3.amazonaws.com/12_14_7/line/7.png,https://scenegraph-m2s-beth-aryan-class-project0.s3.amazonaws.com/12_14_7/line/5.png,109.0,,0.0-114.0,iter_0,scenegraph-m2s,0,2766,,https://scenegraph-m2s-beth-aryan-class-project0.s3.amazonaws.com/12_14_7/line/7.png,,546031,114,plugin-m2s-task,test
110,639b993d8c4fcd3ab5d82c25,"['https://scenegraph-m2s-beth-aryan-class-project0.s3.amazonaws.com/18_7_13/line/5.png', 'https://scenegraph-m2s-beth-aryan-class-project0.s3.amazonaws.com/7_18_13/nonequtriangle/1.png']",True,1.0,class-project-0,4994-61393299-7f48-4fa5-8353-1a72c5bf644f,https://scenegraph-m2s-beth-aryan-class-project0.s3.amazonaws.com/18_7_13/line/5.png,https://scenegraph-m2s-beth-aryan-class-project0.s3.amazonaws.com/7_18_13/nonequtriangle/6.png,https://scenegraph-m2s-beth-aryan-class-project0.s3.amazonaws.com/7_18_13/nonequtriangle/1.png,110.0,,0.0-115.0,iter_0,scenegraph-m2s,1,2621,,https://scenegraph-m2s-beth-aryan-class-project0.s3.amazonaws.com/7_18_13/nonequtriangle/6.png,,549666,115,plugin-m2s-task,test
111,639b99408c4fcd3ab5d82c26,"['https://scenegraph-m2s-beth-aryan-class-project0.s3.amazonaws.com/4_11_12/line/1.png', 'https://scenegraph-m2s-beth-aryan-class-project0.s3.amazonaws.com/2_14_10/random/8.png']",True,0.0,class-project-0,4994-61393299-7f48-4fa5-8353-1a72c5bf644f,https://scenegraph-m2s-beth-aryan-class-project0.s3.amazonaws.com/2_14_10/random/8.png,https://scenegraph-m2s-beth-aryan-class-project0.s3.amazonaws.com/4_11_12/line/5.png,https://scenegraph-m2s-beth-aryan-class-project0.s3.amazonaws.com/4_11_12/line/1.png,111.0,,0.0-116.0,iter_0,scenegraph-m2s,0,1523,,https://scenegraph-m2s-beth-aryan-class-project0.s3.amazonaws.com/4_11_12/line/5.png,,552201,116,plugin-m2s-task,test
112,639b99468c4fcd3ab5d82c27,"['https://scenegraph-m2s-beth-aryan-class-project0.s3.amazonaws.com/10_14_18/nonequtriangle/8.png', 'https://scenegraph-m2s-beth-aryan-class-project0.s3.amazonaws.com/18_14_10/nonequtriangle/9.png']",True,0.0,class-project-0,4994-61393299-7f48-4fa5-8353-1a72c5bf644f,https://scenegraph-m2s-beth-aryan-class-project0.s3.amazonaws.com/18_14_10/nonequtriangle/9.png,https://scenegraph-m2s-beth-aryan-class-project0.s3.amazonaws.com/10_14_18/nonequtriangle/5.png,https://scenegraph-m2s-beth-aryan-class-project0.s3.amazonaws.com/10_14_18/nonequtriangle/8.png,112.0,,0.0-117.0,iter_0,scenegraph-m2s,0,5162,,https://scenegraph-m2s-beth-aryan-class-project0.s3.amazonaws.com/10_14_18/nonequtriangle/5.png,,558375,117,plugin-m2s-task,test
113,639b99538c4fcd3ab5d82c28,"['https://scenegraph-m2s-beth-aryan-class-project0.s3.amazonaws.com/7_14_12/nonequtriangle/1.png', 'https://scenegraph-m2s-beth-aryan-class-project0.s3.amazonaws.com/7_12_14/nonequtriangle/3.png']",True,0.0,class-project-0,4994-61393299-7f48-4fa5-8353-1a72c5bf644f,https://scenegraph-m2s-beth-aryan-class-project0.s3.amazonaws.com/7_12_14/nonequtriangle/3.png,https://scenegraph-m2s-beth-aryan-class-project0.s3.amazonaws.com/7_14_12/nonequtriangle/4.png,https://scenegraph-m2s-beth-aryan-class-project0.s3.amazonaws.com/7_14_12/nonequtriangle/1.png,113.0,,0.0-118.0,iter_0,scenegraph-m2s,0,11382,,https://scenegraph-m2s-beth-aryan-class-project0.s3.amazonaws.com/7_14_12/nonequtriangle/4.png,,570771,118,plugin-m2s-task,test
114,639b99568c4fcd3ab5d82c29,"['https://scenegraph-m2s-beth-aryan-class-project0.s3.amazonaws.com/11_13_14/random/4.png', 'https://scenegraph-m2s-beth-aryan-class-project0.s3.amazonaws.com/13_18_2/nonequtriangle/2.png']",True,0.0,class-project-0,4994-61393299-7f48-4fa5-8353-1a72c5bf644f,https://scenegraph-m2s-beth-aryan-class-project0.s3.amazonaws.com/13_18_2/nonequtriangle/2.png,https://scenegraph-m2s-beth-aryan-class-project0.s3.amazonaws.com/11_13_14/random/6.png,https://scenegraph-m2s-beth-aryan-class-project0.s3.amazonaws.com/11_13_14/random/4.png,114.0,,0.0-119.0,iter_0,scenegraph-m2s,0,2081,,https://scenegraph-m2s-beth-aryan-class-project0.s3.amazonaws.com/11_13_14/random/6.png,,573864,119,plugin-m2s-task,test
115,639b99598c4fcd3ab5d82c2a,"['https://scenegraph-m2s-beth-aryan-class-project0.s3.amazonaws.com/11_5_13/line/6.png', 'https://scenegraph-m2s-beth-aryan-class-project0.s3.amazonaws.com/4_13_14/nonequtriangle/2.png']",True,1.0,class-project-0,4994-61393299-7f48-4fa5-8353-1a72c5bf644f,https://scenegraph-m2s-beth-aryan-class-project0.s3.amazonaws.com/11_5_13/line/6.png,https://scenegraph-m2s-beth-aryan-class-project0.s3.amazonaws.com/4_13_14/nonequtriangle/8.png,https://scenegraph-m2s-beth-aryan-class-project0.s3.amazonaws.com/4_13_14/nonequtriangle/2.png,115.0,,0.0-120.0,iter_0,scenegraph-m2s,1,2257,,https://scenegraph-m2s-beth-aryan-class-project0.s3.amazonaws.com/4_13_14/nonequtriangle/8.png,,577136,120,plugin-m2s-task,test
116,639b995c8c4fcd3ab5d82c2b,"['https://scenegraph-m2s-beth-aryan-class-project0.s3.amazonaws.com/2_13_14/nonequtriangle/5.png', 'https://scenegraph-m2s-beth-aryan-class-project0.s3.amazonaws.com/11_10_13/nonequtriangle/8.png']",True,1.0,class-project-0,4994-61393299-7f48-4fa5-8353-1a72c5bf644f,https://scenegraph-m2s-beth-aryan-class-project0.s3.amazonaws.com/2_13_14/nonequtriangle/5.png,https://scenegraph-m2s-beth-aryan-class-project0.s3.amazonaws.com/11_10_13/nonequtriangle/7.png,https://scenegraph-m2s-beth-aryan-class-project0.s3.amazonaws.com/11_10_13/nonequtriangle/8.png,116.0,,0.0-121.0,iter_0,scenegraph-m2s,1,1834,,https://scenegraph-m2s-beth-aryan-class-project0.s3.amazonaws.com/11_10_13/nonequtriangle/7.png,,579983,121,plugin-m2s-task,test
117,639b995e8c4fcd3ab5d82c2c,"['https://scenegraph-m2s-beth-aryan-class-project0.s3.amazonaws.com/2_7_5/nonequtriangle/9.png', 'https://scenegraph-m2s-beth-aryan-class-project0.s3.amazonaws.com/5_7_10/line/1.png']",True,1.0,class-project-0,4994-61393299-7f48-4fa5-8353-1a72c5bf644f,https://scenegraph-m2s-beth-aryan-class-project0.s3.amazonaws.com/2_7_5/nonequtriangle/9.png,https://scenegraph-m2s-beth-aryan-class-project0.s3.amazonaws.com/5_7_10/line/3.png,https://scenegraph-m2s-beth-aryan-class-project0.s3.amazonaws.com/5_7_10/line/1.png,117.0,,0.0-122.0,iter_0,scenegraph-m2s,1,1650,,https://scenegraph-m2s-beth-aryan-class-project0.s3.amazonaws.com/5_7_10/line/3.png,,582647,122,plugin-m2s-task,test
118,639b99618c4fcd3ab5d82c2d,"['https://scenegraph-m2s-beth-aryan-class-project0.s3.amazonaws.com/13_4_18/line/1.png', 'https://scenegraph-m2s-beth-aryan-class-project0.s3.amazonaws.com/13_18_4/line/7.png']",True,0.0,class-project-0,4994-61393299-7f48-4fa5-8353-1a72c5bf644f,https://scenegraph-m2s-beth-aryan-class-project0.s3.amazonaws.com/13_18_4/line/7.png,https://scenegraph-m2s-beth-aryan-class-project0.s3.amazonaws.com/13_4_18/line/7.png,https://scenegraph-m2s-beth-aryan-class-project0.s3.amazonaws.com/13_4_18/line/1.png,118.0,,0.0-123.0,iter_0,scenegraph-m2s,0,1949,,https://scenegraph-m2s-beth-aryan-class-project0.s3.amazonaws.com/13_4_18/line/7.png,,585609,123,plugin-m2s-task,test
119,639b99648c4fcd3ab5d82c2e,"['https://scenegraph-m2s-beth-aryan-class-project0.s3.amazonaws.com/12_5_13/random/8.png', 'https://scenegraph-m2s-beth-aryan-class-project0.s3.amazonaws.com/11_14_2/line/8.png']",True,0.0,class-project-0,4994-61393299-7f48-4fa5-8353-1a72c5bf644f,https://scenegraph-m2s-beth-aryan-class-project0.s3.amazonaws.com/11_14_2/line/8.png,https://scenegraph-m2s-beth-aryan-class-project0.s3.amazonaws.com/12_5_13/random/6.png,https://scenegraph-m2s-beth-aryan-class-project0.s3.amazonaws.com/12_5_13/random/8.png,119.0,,0.0-124.0,iter_0,scenegraph-m2s,0,1364,,https://scenegraph-m2s-beth-aryan-class-project0.s3.amazonaws.com/12_5_13/random/6.png,,587985,124,plugin-m2s-task,test
120,639b996d8c4fcd3ab5d82c2f,,,,class-project-0,,,,,,,0.0-125.0,iter_0,scenegraph-m2s,{'Q0': 'the best study. you all rock'},8438,,,,597446,125,survey-text,test
121,639c94068c4fcd3ab5d82c30,"['https://scenegraph-m2s-beth-aryan-class-project0.s3.amazonaws.com/13_10_4/random/7.png', 'https://scenegraph-m2s-beth-aryan-class-project0.s3.amazonaws.com/13_12_14/line/1.png']",True,1.0,class-project-0,9013-0e4c8062-f06d-4b7a-a033-92a345e0f977,https://scenegraph-m2s-beth-aryan-class-project0.s3.amazonaws.com/13_10_4/random/7.png,https://scenegraph-m2s-beth-aryan-class-project0.s3.amazonaws.com/13_12_14/line/3.png,https://scenegraph-m2s-beth-aryan-class-project0.s3.amazonaws.com/13_12_14/line/1.png,0.0,,0.0-9.0,iter_0,scenegraph-m2s,1,3152,639c92b7a0ee204c5dbe84b0,https://scenegraph-m2s-beth-aryan-class-project0.s3.amazonaws.com/13_12_14/line/3.png,639c928b6a7b05e19df20f63,325560,9,plugin-m2s-task,60ff22b6a2cb5518d42c5dfb
122,639c94108c4fcd3ab5d82c31,"['https://scenegraph-m2s-beth-aryan-class-project0.s3.amazonaws.com/2_7_12/nonequtriangle/8.png', 'https://scenegraph-m2s-beth-aryan-class-project0.s3.amazonaws.com/2_12_7/line/3.png']",True,0.0,class-project-0,9013-0e4c8062-f06d-4b7a-a033-92a345e0f977,https://scenegraph-m2s-beth-aryan-class-project0.s3.amazonaws.com/2_12_7/line/3.png,https://scenegraph-m2s-beth-aryan-class-project0.s3.amazonaws.com/2_7_12/nonequtriangle/5.png,https://scenegraph-m2s-beth-aryan-class-project0.s3.amazonaws.com/2_7_12/nonequtriangle/8.png,1.0,,0.0-10.0,iter_0,scenegraph-m2s,0,9169,639c92b7a0ee204c5dbe84b0,https://scenegraph-m2s-beth-aryan-class-project0.s3.amazonaws.com/2_7_12/nonequtriangle/5.png,639c928b6a7b05e19df20f63,335737,10,plugin-m2s-task,60ff22b6a2cb5518d42c5dfb
123,639c94148c4fcd3ab5d82c32,"['https://scenegraph-m2s-beth-aryan-class-project0.s3.amazonaws.com/4_5_13/random/3.png', 'https://scenegraph-m2s-beth-aryan-class-project0.s3.amazonaws.com/4_10_12/random/3.png']",True,1.0,class-project-0,9013-0e4c8062-f06d-4b7a-a033-92a345e0f977,https://scenegraph-m2s-beth-aryan-class-project0.s3.amazonaws.com/4_5_13/random/3.png,https://scenegraph-m2s-beth-aryan-class-project0.s3.amazonaws.com/4_10_12/random/9.png,https://scenegraph-m2s-beth-aryan-class-project0.s3.amazonaws.com/4_10_12/random/3.png,2.0,,0.0-11.0,iter_0,scenegraph-m2s,1,2609,639c92b7a0ee204c5dbe84b0,https://scenegraph-m2s-beth-aryan-class-project0.s3.amazonaws.com/4_10_12/random/9.png,639c928b6a7b05e19df20f63,339365,11,plugin-m2s-task,60ff22b6a2cb5518d42c5dfb
124,639c94188c4fcd3ab5d82c33,"['https://scenegraph-m2s-beth-aryan-class-project0.s3.amazonaws.com/18_2_11/nonequtriangle/1.png', 'https://scenegraph-m2s-beth-aryan-class-project0.s3.amazonaws.com/2_18_13/line/9.png']",True,0.0,class-project-0,9013-0e4c8062-f06d-4b7a-a033-92a345e0f977,https://scenegraph-m2s-beth-aryan-class-project0.s3.amazonaws.com/2_18_13/line/9.png,https://scenegraph-m2s-beth-aryan-class-project0.s3.amazonaws.com/18_2_11/nonequtriangle/6.png,https://scenegraph-m2s-beth-aryan-class-project0.s3.amazonaws.com/18_2_11/nonequtriangle/1.png,3.0,,0.0-12.0,iter_0,scenegraph-m2s,0,3537,639c92b7a0ee204c5dbe84b0,https://scenegraph-m2s-beth-aryan-class-project0.s3.amazonaws.com/18_2_11/nonequtriangle/6.png,639c928b6a7b05e19df20f63,343905,12,plugin-m2s-task,60ff22b6a2cb5518d42c5dfb
125,639c941c8c4fcd3ab5d82c34,"['https://scenegraph-m2s-beth-aryan-class-project0.s3.amazonaws.com/18_11_4/nonequtriangle/9.png', 'https://scenegraph-m2s-beth-aryan-class-project0.s3.amazonaws.com/4_18_11/nonequtriangle/9.png']",False,1.0,class-project-0,9013-0e4c8062-f06d-4b7a-a033-92a345e0f977,https://scenegraph-m2s-beth-aryan-class-project0.s3.amazonaws.com/18_11_4/nonequtriangle/9.png,https://scenegraph-m2s-beth-aryan-class-project0.s3.amazonaws.com/4_18_11/nonequtriangle/2.png,https://scenegraph-m2s-beth-aryan-class-project0.s3.amazonaws.com/4_18_11/nonequtriangle/9.png,4.0,,0.0-13.0,iter_0,scenegraph-m2s,0,2294,639c92b7a0ee204c5dbe84b0,https://scenegraph-m2s-beth-aryan-class-project0.s3.amazonaws.com/4_18_11/nonequtriangle/2.png,639c928b6a7b05e19df20f63,347206,13,plugin-m2s-task,60ff22b6a2cb5518d42c5dfb
126,639c94228c4fcd3ab5d82c35,"['https://scenegraph-m2s-beth-aryan-class-project0.s3.amazonaws.com/10_7_14/line/2.png', 'https://scenegraph-m2s-beth-aryan-class-project0.s3.amazonaws.com/5_10_4/line/2.png']",True,1.0,class-project-0,9013-0e4c8062-f06d-4b7a-a033-92a345e0f977,https://scenegraph-m2s-beth-aryan-class-project0.s3.amazonaws.com/10_7_14/line/2.png,https://scenegraph-m2s-beth-aryan-class-project0.s3.amazonaws.com/5_10_4/line/8.png,https://scenegraph-m2s-beth-aryan-class-project0.s3.amazonaws.com/5_10_4/line/2.png,5.0,,0.0-14.0,iter_0,scenegraph-m2s,1,5350,639c92b7a0ee204c5dbe84b0,https://scenegraph-m2s-beth-aryan-class-project0.s3.amazonaws.com/5_10_4/line/8.png,639c928b6a7b05e19df20f63,353566,14,plugin-m2s-task,60ff22b6a2cb5518d42c5dfb
127,639c94268c4fcd3ab5d82c36,"['https://scenegraph-m2s-beth-aryan-class-project0.s3.amazonaws.com/13_5_14/nonequtriangle/1.png', 'https://scenegraph-m2s-beth-aryan-class-project0.s3.amazonaws.com/10_5_2/random/7.png']",True,1.0,class-project-0,9013-0e4c8062-f06d-4b7a-a033-92a345e0f977,https://scenegraph-m2s-beth-aryan-class-project0.s3.amazonaws.com/13_5_14/nonequtriangle/1.png,https://scenegraph-m2s-beth-aryan-class-project0.s3.amazonaws.com/10_5_2/random/1.png,https://scenegraph-m2s-beth-aryan-class-project0.s3.amazonaws.com/10_5_2/random/7.png,6.0,,0.0-15.0,iter_0,scenegraph-m2s,1,3188,639c92b7a0ee204c5dbe84b0,https://scenegraph-m2s-beth-aryan-class-project0.s3.amazonaws.com/10_5_2/random/1.png,639c928b6a7b05e19df20f63,357765,15,plugin-m2s-task,60ff22b6a2cb5518d42c5dfb
128,639c942a8c4fcd3ab5d82c37,"['https://scenegraph-m2s-beth-aryan-class-project0.s3.amazonaws.com/18_10_11/line/2.png', 'https://scenegraph-m2s-beth-aryan-class-project0.s3.amazonaws.com/11_18_10/random/1.png']",False,1.0,class-project-0,9013-0e4c8062-f06d-4b7a-a033-92a345e0f977,https://scenegraph-m2s-beth-aryan-class-project0.s3.amazonaws.com/18_10_11/line/2.png,https://scenegraph-m2s-beth-aryan-class-project0.s3.amazonaws.com/11_18_10/random/8.png,https://scenegraph-m2s-beth-aryan-class-project0.s3.amazonaws.com/11_18_10/random/1.png,7.0,,0.0-16.0,iter_0,scenegraph-m2s,0,2999,639c92b7a0ee204c5dbe84b0,https://scenegraph-m2s-beth-aryan-class-project0.s3.amazonaws.com/11_18_10/random/8.png,639c928b6a7b05e19df20f63,361768,16,plugin-m2s-task,60ff22b6a2cb5518d42c5dfb
129,639c94338c4fcd3ab5d82c38,"['https://scenegraph-m2s-beth-aryan-class-project0.s3.amazonaws.com/13_2_12/random/9.png', 'https://scenegraph-m2s-beth-aryan-class-project0.s3.amazonaws.com/12_13_2/random/7.png']",False,1.0,class-project-0,9013-0e4c8062-f06d-4b7a-a033-92a345e0f977,https://scenegraph-m2s-beth-aryan-class-project0.s3.amazonaws.com/13_2_12/random/9.png,https://scenegraph-m2s-beth-aryan-class-project0.s3.amazonaws.com/12_13_2/random/1.png,https://scenegraph-m2s-beth-aryan-class-project0.s3.amazonaws.com/12_13_2/random/7.png,8.0,,0.0-17.0,iter_0,scenegraph-m2s,0,7731,639c92b7a0ee204c5dbe84b0,https://scenegraph-m2s-beth-aryan-class-project0.s3.amazonaws.com/12_13_2/random/1.png,639c928b6a7b05e19df20f63,370507,17,plugin-m2s-task,60ff22b6a2cb5518d42c5dfb
130,639c943a8c4fcd3ab5d82c39,"['https://scenegraph-m2s-beth-aryan-class-project0.s3.amazonaws.com/10_4_12/line/7.png', 'https://scenegraph-m2s-beth-aryan-class-project0.s3.amazonaws.com/12_10_4/line/6.png']",False,1.0,class-project-0,9013-0e4c8062-f06d-4b7a-a033-92a345e0f977,https://scenegraph-m2s-beth-aryan-class-project0.s3.amazonaws.com/10_4_12/line/7.png,https://scenegraph-m2s-beth-aryan-class-project0.s3.amazonaws.com/12_10_4/line/2.png,https://scenegraph-m2s-beth-aryan-class-project0.s3.amazonaws.com/12_10_4/line/6.png,9.0,,0.0-18.0,iter_0,scenegraph-m2s,0,5733,639c92b7a0ee204c5dbe84b0,https://scenegraph-m2s-beth-aryan-class-project0.s3.amazonaws.com/12_10_4/line/2.png,639c928b6a7b05e19df20f63,377247,18,plugin-m2s-task,60ff22b6a2cb5518d42c5dfb
131,639c94408c4fcd3ab5d82c3a,"['https://scenegraph-m2s-beth-aryan-class-project0.s3.amazonaws.com/7_12_13/nonequtriangle/7.png', 'https://scenegraph-m2s-beth-aryan-class-project0.s3.amazonaws.com/4_5_14/nonequtriangle/3.png']",True,0.0,class-project-0,9013-0e4c8062-f06d-4b7a-a033-92a345e0f977,https://scenegraph-m2s-beth-aryan-class-project0.s3.amazonaws.com/4_5_14/nonequtriangle/3.png,https://scenegraph-m2s-beth-aryan-class-project0.s3.amazonaws.com/7_12_13/nonequtriangle/8.png,https://scenegraph-m2s-beth-aryan-class-project0.s3.amazonaws.com/7_12_13/nonequtriangle/7.png,10.0,,0.0-19.0,iter_0,scenegraph-m2s,0,5177,639c92b7a0ee204c5dbe84b0,https://scenegraph-m2s-beth-aryan-class-project0.s3.amazonaws.com/7_12_13/nonequtriangle/8.png,639c928b6a7b05e19df20f63,383434,19,plugin-m2s-task,60ff22b6a2cb5518d42c5dfb
132,639c944b8c4fcd3ab5d82c3b,"['https://scenegraph-m2s-beth-aryan-class-project0.s3.amazonaws.com/14_7_5/line/4.png', 'https://scenegraph-m2s-beth-aryan-class-project0.s3.amazonaws.com/7_5_14/line/5.png']",True,0.0,class-project-0,9013-0e4c8062-f06d-4b7a-a033-92a345e0f977,https://scenegraph-m2s-beth-aryan-class-project0.s3.amazonaws.com/7_5_14/line/5.png,https://scenegraph-m2s-beth-aryan-class-project0.s3.amazonaws.com/14_7_5/line/7.png,https://scenegraph-m2s-beth-aryan-class-project0.s3.amazonaws.com/14_7_5/line/4.png,11.0,,0.0-20.0,iter_0,scenegraph-m2s,0,10010,639c92b7a0ee204c5dbe84b0,https://scenegraph-m2s-beth-aryan-class-project0.s3.amazonaws.com/14_7_5/line/7.png,639c928b6a7b05e19df20f63,394453,20,plugin-m2s-task,60ff22b6a2cb5518d42c5dfb
133,639c94538c4fcd3ab5d82c3c,"['https://scenegraph-m2s-beth-aryan-class-project0.s3.amazonaws.com/7_4_10/nonequtriangle/7.png', 'https://scenegraph-m2s-beth-aryan-class-project0.s3.amazonaws.com/4_7_10/nonequtriangle/7.png']",False,1.0,class-project-0,9013-0e4c8062-f06d-4b7a-a033-92a345e0f977,https://scenegraph-m2s-beth-aryan-class-project0.s3.amazonaws.com/7_4_10/nonequtriangle/7.png,https://scenegraph-m2s-beth-aryan-class-project0.s3.amazonaws.com/4_7_10/nonequtriangle/2.png,https://scenegraph-m2s-beth-aryan-class-project0.s3.amazonaws.com/4_7_10/nonequtriangle/7.png,12.0,,0.0-21.0,iter_0,scenegraph-m2s,0,7441,639c92b7a0ee204c5dbe84b0,https://scenegraph-m2s-beth-aryan-class-project0.s3.amazonaws.com/4_7_10/nonequtriangle/2.png,639c928b6a7b05e19df20f63,402900,21,plugin-m2s-task,60ff22b6a2cb5518d42c5dfb
134,639c945c8c4fcd3ab5d82c3d,"['https://scenegraph-m2s-beth-aryan-class-project0.s3.amazonaws.com/12_4_7/random/9.png', 'https://scenegraph-m2s-beth-aryan-class-project0.s3.amazonaws.com/4_12_7/random/6.png']",True,0.0,class-project-0,9013-0e4c8062-f06d-4b7a-a033-92a345e0f977,https://scenegraph-m2s-beth-aryan-class-project0.s3.amazonaws.com/4_12_7/random/6.png,https://scenegraph-m2s-beth-aryan-class-project0.s3.amazonaws.com/12_4_7/random/6.png,https://scenegraph-m2s-beth-aryan-class-project0.s3.amazonaws.com/12_4_7/random/9.png,13.0,,0.0-22.0,iter_0,scenegraph-m2s,0,7379,639c92b7a0ee204c5dbe84b0,https://scenegraph-m2s-beth-aryan-class-project0.s3.amazonaws.com/12_4_7/random/6.png,639c928b6a7b05e19df20f63,411286,22,plugin-m2s-task,60ff22b6a2cb5518d42c5dfb
135,639c94618c4fcd3ab5d82c3e,"['https://scenegraph-m2s-beth-aryan-class-project0.s3.amazonaws.com/14_5_7/random/5.png', 'https://scenegraph-m2s-beth-aryan-class-project0.s3.amazonaws.com/12_5_11/nonequtriangle/9.png']",True,1.0,class-project-0,9013-0e4c8062-f06d-4b7a-a033-92a345e0f977,https://scenegraph-m2s-beth-aryan-class-project0.s3.amazonaws.com/14_5_7/random/5.png,https://scenegraph-m2s-beth-aryan-class-project0.s3.amazonaws.com/12_5_11/nonequtriangle/4.png,https://scenegraph-m2s-beth-aryan-class-project0.s3.amazonaws.com/12_5_11/nonequtriangle/9.png,14.0,,0.0-23.0,iter_0,scenegraph-m2s,1,4257,639c92b7a0ee204c5dbe84b0,https://scenegraph-m2s-beth-aryan-class-project0.s3.amazonaws.com/12_5_11/nonequtriangle/4.png,639c928b6a7b05e19df20f63,416548,23,plugin-m2s-task,60ff22b6a2cb5518d42c5dfb
136,639c94658c4fcd3ab5d82c3f,"['https://scenegraph-m2s-beth-aryan-class-project0.s3.amazonaws.com/7_18_13/nonequtriangle/1.png', 'https://scenegraph-m2s-beth-aryan-class-project0.s3.amazonaws.com/18_7_13/line/5.png']",True,0.0,class-project-0,9013-0e4c8062-f06d-4b7a-a033-92a345e0f977,https://scenegraph-m2s-beth-aryan-class-project0.s3.amazonaws.com/18_7_13/line/5.png,https://scenegraph-m2s-beth-aryan-class-project0.s3.amazonaws.com/7_18_13/nonequtriangle/6.png,https://scenegraph-m2s-beth-aryan-class-project0.s3.amazonaws.com/7_18_13/nonequtriangle/1.png,15.0,,0.0-24.0,iter_0,scenegraph-m2s,0,2908,639c92b7a0ee204c5dbe84b0,https://scenegraph-m2s-beth-aryan-class-project0.s3.amazonaws.com/7_18_13/nonequtriangle/6.png,639c928b6a7b05e19df20f63,420463,24,plugin-m2s-task,60ff22b6a2cb5518d42c5dfb
137,639c94738c4fcd3ab5d82c40,"['https://scenegraph-m2s-beth-aryan-class-project0.s3.amazonaws.com/10_14_18/nonequtriangle/8.png', 'https://scenegraph-m2s-beth-aryan-class-project0.s3.amazonaws.com/18_14_10/nonequtriangle/9.png']",False,0.0,class-project-0,9013-0e4c8062-f06d-4b7a-a033-92a345e0f977,https://scenegraph-m2s-beth-aryan-class-project0.s3.amazonaws.com/18_14_10/nonequtriangle/9.png,https://scenegraph-m2s-beth-aryan-class-project0.s3.amazonaws.com/10_14_18/nonequtriangle/5.png,https://scenegraph-m2s-beth-aryan-class-project0.s3.amazonaws.com/10_14_18/nonequtriangle/8.png,16.0,,0.0-25.0,iter_0,scenegraph-m2s,1,13450,639c92b7a0ee204c5dbe84b0,https://scenegraph-m2s-beth-aryan-class-project0.s3.amazonaws.com/10_14_18/nonequtriangle/5.png,639c928b6a7b05e19df20f63,434918,25,plugin-m2s-task,60ff22b6a2cb5518d42c5dfb
