,_id,choices,correct,correct_choice,expName,gameid,img_lure,img_sample,img_target,index,inputid,internal_node_id,iterationName,projName,response,rt,sessionID,stimulus,studyID,time_elapsed,trial_index,trial_type,userID
3872,63a07de08c4fcd3ab5d83ad7,"['https://scenegraph-m2s-beth-aryan-class-project0.s3.amazonaws.com/10_14_18/nonequtriangle/8.png', 'https://scenegraph-m2s-beth-aryan-class-project0.s3.amazonaws.com/18_14_10/nonequtriangle/9.png']",True,0.0,class-project-0,5841-e07fdae6-1491-4ad1-a534-c7c249d48b11,https://scenegraph-m2s-beth-aryan-class-project0.s3.amazonaws.com/18_14_10/nonequtriangle/9.png,https://scenegraph-m2s-beth-aryan-class-project0.s3.amazonaws.com/10_14_18/nonequtriangle/5.png,https://scenegraph-m2s-beth-aryan-class-project0.s3.amazonaws.com/10_14_18/nonequtriangle/8.png,0.0,,0.0-9.0,iter_0,scenegraph-m2s,0,7592,63a07d553b4caa3046c84936,https://scenegraph-m2s-beth-aryan-class-project0.s3.amazonaws.com/10_14_18/nonequtriangle/5.png,63a07b21ee74c867210551b3,133735,9,plugin-m2s-task,60189713dcf864178f74a1ce
3873,63a07de38c4fcd3ab5d83ad8,"['https://scenegraph-m2s-beth-aryan-class-project0.s3.amazonaws.com/7_11_10/random/5.png', 'https://scenegraph-m2s-beth-aryan-class-project0.s3.amazonaws.com/13_5_14/random/1.png']",True,1.0,class-project-0,5841-e07fdae6-1491-4ad1-a534-c7c249d48b11,https://scenegraph-m2s-beth-aryan-class-project0.s3.amazonaws.com/7_11_10/random/5.png,https://scenegraph-m2s-beth-aryan-class-project0.s3.amazonaws.com/13_5_14/random/2.png,https://scenegraph-m2s-beth-aryan-class-project0.s3.amazonaws.com/13_5_14/random/1.png,1.0,,0.0-10.0,iter_0,scenegraph-m2s,1,1478,63a07d553b4caa3046c84936,https://scenegraph-m2s-beth-aryan-class-project0.s3.amazonaws.com/13_5_14/random/2.png,63a07b21ee74c867210551b3,136234,10,plugin-m2s-task,60189713dcf864178f74a1ce
3874,63a07de68c4fcd3ab5d83ad9,"['https://scenegraph-m2s-beth-aryan-class-project0.s3.amazonaws.com/18_14_5/random/9.png', 'https://scenegraph-m2s-beth-aryan-class-project0.s3.amazonaws.com/13_10_14/random/1.png']",True,1.0,class-project-0,5841-e07fdae6-1491-4ad1-a534-c7c249d48b11,https://scenegraph-m2s-beth-aryan-class-project0.s3.amazonaws.com/18_14_5/random/9.png,https://scenegraph-m2s-beth-aryan-class-project0.s3.amazonaws.com/13_10_14/random/5.png,https://scenegraph-m2s-beth-aryan-class-project0.s3.amazonaws.com/13_10_14/random/1.png,2.0,,0.0-11.0,iter_0,scenegraph-m2s,1,1822,63a07d553b4caa3046c84936,https://scenegraph-m2s-beth-aryan-class-project0.s3.amazonaws.com/13_10_14/random/5.png,63a07b21ee74c867210551b3,139078,11,plugin-m2s-task,60189713dcf864178f74a1ce
3875,63a07deb8c4fcd3ab5d83ada,"['https://scenegraph-m2s-beth-aryan-class-project0.s3.amazonaws.com/13_18_12/line/3.png', 'https://scenegraph-m2s-beth-aryan-class-project0.s3.amazonaws.com/12_13_18/line/1.png']",True,0.0,class-project-0,5841-e07fdae6-1491-4ad1-a534-c7c249d48b11,https://scenegraph-m2s-beth-aryan-class-project0.s3.amazonaws.com/12_13_18/line/1.png,https://scenegraph-m2s-beth-aryan-class-project0.s3.amazonaws.com/13_18_12/line/9.png,https://scenegraph-m2s-beth-aryan-class-project0.s3.amazonaws.com/13_18_12/line/3.png,3.0,,0.0-12.0,iter_0,scenegraph-m2s,0,3852,63a07d553b4caa3046c84936,https://scenegraph-m2s-beth-aryan-class-project0.s3.amazonaws.com/13_18_12/line/9.png,63a07b21ee74c867210551b3,143950,12,plugin-m2s-task,60189713dcf864178f74a1ce
3876,63a07df18c4fcd3ab5d83adb,"['https://scenegraph-m2s-beth-aryan-class-project0.s3.amazonaws.com/18_4_5/random/5.png', 'https://scenegraph-m2s-beth-aryan-class-project0.s3.amazonaws.com/4_5_18/random/8.png']",True,1.0,class-project-0,5841-e07fdae6-1491-4ad1-a534-c7c249d48b11,https://scenegraph-m2s-beth-aryan-class-project0.s3.amazonaws.com/18_4_5/random/5.png,https://scenegraph-m2s-beth-aryan-class-project0.s3.amazonaws.com/4_5_18/random/5.png,https://scenegraph-m2s-beth-aryan-class-project0.s3.amazonaws.com/4_5_18/random/8.png,4.0,,0.0-13.0,iter_0,scenegraph-m2s,1,5298,63a07d553b4caa3046c84936,https://scenegraph-m2s-beth-aryan-class-project0.s3.amazonaws.com/4_5_18/random/5.png,63a07b21ee74c867210551b3,150257,13,plugin-m2s-task,60189713dcf864178f74a1ce
3877,63a07df98c4fcd3ab5d83adc,"['https://scenegraph-m2s-beth-aryan-class-project0.s3.amazonaws.com/7_12_14/nonequtriangle/3.png', 'https://scenegraph-m2s-beth-aryan-class-project0.s3.amazonaws.com/7_14_12/nonequtriangle/1.png']",True,1.0,class-project-0,5841-e07fdae6-1491-4ad1-a534-c7c249d48b11,https://scenegraph-m2s-beth-aryan-class-project0.s3.amazonaws.com/7_12_14/nonequtriangle/3.png,https://scenegraph-m2s-beth-aryan-class-project0.s3.amazonaws.com/7_14_12/nonequtriangle/4.png,https://scenegraph-m2s-beth-aryan-class-project0.s3.amazonaws.com/7_14_12/nonequtriangle/1.png,5.0,,0.0-14.0,iter_0,scenegraph-m2s,1,7058,63a07d553b4caa3046c84936,https://scenegraph-m2s-beth-aryan-class-project0.s3.amazonaws.com/7_14_12/nonequtriangle/4.png,63a07b21ee74c867210551b3,158336,14,plugin-m2s-task,60189713dcf864178f74a1ce
3878,63a07dfd8c4fcd3ab5d83add,"['https://scenegraph-m2s-beth-aryan-class-project0.s3.amazonaws.com/2_7_5/nonequtriangle/9.png', 'https://scenegraph-m2s-beth-aryan-class-project0.s3.amazonaws.com/5_7_10/line/1.png']",True,1.0,class-project-0,5841-e07fdae6-1491-4ad1-a534-c7c249d48b11,https://scenegraph-m2s-beth-aryan-class-project0.s3.amazonaws.com/2_7_5/nonequtriangle/9.png,https://scenegraph-m2s-beth-aryan-class-project0.s3.amazonaws.com/5_7_10/line/3.png,https://scenegraph-m2s-beth-aryan-class-project0.s3.amazonaws.com/5_7_10/line/1.png,6.0,,0.0-15.0,iter_0,scenegraph-m2s,1,3167,63a07d553b4caa3046c84936,https://scenegraph-m2s-beth-aryan-class-project0.s3.amazonaws.com/5_7_10/line/3.png,63a07b21ee74c867210551b3,162511,15,plugin-m2s-task,60189713dcf864178f74a1ce
3879,63a07e018c4fcd3ab5d83ade,"['https://scenegraph-m2s-beth-aryan-class-project0.s3.amazonaws.com/7_4_11/line/9.png', 'https://scenegraph-m2s-beth-aryan-class-project0.s3.amazonaws.com/12_2_14/random/8.png']",True,1.0,class-project-0,5841-e07fdae6-1491-4ad1-a534-c7c249d48b11,https://scenegraph-m2s-beth-aryan-class-project0.s3.amazonaws.com/7_4_11/line/9.png,https://scenegraph-m2s-beth-aryan-class-project0.s3.amazonaws.com/12_2_14/random/6.png,https://scenegraph-m2s-beth-aryan-class-project0.s3.amazonaws.com/12_2_14/random/8.png,7.0,,0.0-16.0,iter_0,scenegraph-m2s,1,2841,63a07d553b4caa3046c84936,https://scenegraph-m2s-beth-aryan-class-project0.s3.amazonaws.com/12_2_14/random/6.png,63a07b21ee74c867210551b3,166369,16,plugin-m2s-task,60189713dcf864178f74a1ce
3880,63a07e068c4fcd3ab5d83adf,"['https://scenegraph-m2s-beth-aryan-class-project0.s3.amazonaws.com/7_10_13/line/4.png', 'https://scenegraph-m2s-beth-aryan-class-project0.s3.amazonaws.com/12_18_5/line/9.png']",True,0.0,class-project-0,5841-e07fdae6-1491-4ad1-a534-c7c249d48b11,https://scenegraph-m2s-beth-aryan-class-project0.s3.amazonaws.com/12_18_5/line/9.png,https://scenegraph-m2s-beth-aryan-class-project0.s3.amazonaws.com/7_10_13/line/2.png,https://scenegraph-m2s-beth-aryan-class-project0.s3.amazonaws.com/7_10_13/line/4.png,8.0,,0.0-17.0,iter_0,scenegraph-m2s,0,4281,63a07d553b4caa3046c84936,https://scenegraph-m2s-beth-aryan-class-project0.s3.amazonaws.com/7_10_13/line/2.png,63a07b21ee74c867210551b3,171674,17,plugin-m2s-task,60189713dcf864178f74a1ce
3881,63a07e0b8c4fcd3ab5d83ae0,"['https://scenegraph-m2s-beth-aryan-class-project0.s3.amazonaws.com/2_7_12/nonequtriangle/8.png', 'https://scenegraph-m2s-beth-aryan-class-project0.s3.amazonaws.com/2_12_7/line/3.png']",True,0.0,class-project-0,5841-e07fdae6-1491-4ad1-a534-c7c249d48b11,https://scenegraph-m2s-beth-aryan-class-project0.s3.amazonaws.com/2_12_7/line/3.png,https://scenegraph-m2s-beth-aryan-class-project0.s3.amazonaws.com/2_7_12/nonequtriangle/5.png,https://scenegraph-m2s-beth-aryan-class-project0.s3.amazonaws.com/2_7_12/nonequtriangle/8.png,9.0,,0.0-18.0,iter_0,scenegraph-m2s,0,4064,63a07d553b4caa3046c84936,https://scenegraph-m2s-beth-aryan-class-project0.s3.amazonaws.com/2_7_12/nonequtriangle/5.png,63a07b21ee74c867210551b3,176753,18,plugin-m2s-task,60189713dcf864178f74a1ce
3882,63a07e108c4fcd3ab5d83ae1,"['https://scenegraph-m2s-beth-aryan-class-project0.s3.amazonaws.com/4_13_12/random/2.png', 'https://scenegraph-m2s-beth-aryan-class-project0.s3.amazonaws.com/18_4_11/random/1.png']",True,0.0,class-project-0,5841-e07fdae6-1491-4ad1-a534-c7c249d48b11,https://scenegraph-m2s-beth-aryan-class-project0.s3.amazonaws.com/18_4_11/random/1.png,https://scenegraph-m2s-beth-aryan-class-project0.s3.amazonaws.com/4_13_12/random/4.png,https://scenegraph-m2s-beth-aryan-class-project0.s3.amazonaws.com/4_13_12/random/2.png,10.0,,0.0-19.0,iter_0,scenegraph-m2s,0,3867,63a07d553b4caa3046c84936,https://scenegraph-m2s-beth-aryan-class-project0.s3.amazonaws.com/4_13_12/random/4.png,63a07b21ee74c867210551b3,181638,19,plugin-m2s-task,60189713dcf864178f74a1ce
3883,63a07e148c4fcd3ab5d83ae2,"['https://scenegraph-m2s-beth-aryan-class-project0.s3.amazonaws.com/12_7_5/nonequtriangle/4.png', 'https://scenegraph-m2s-beth-aryan-class-project0.s3.amazonaws.com/13_18_12/nonequtriangle/7.png']",True,1.0,class-project-0,5841-e07fdae6-1491-4ad1-a534-c7c249d48b11,https://scenegraph-m2s-beth-aryan-class-project0.s3.amazonaws.com/12_7_5/nonequtriangle/4.png,https://scenegraph-m2s-beth-aryan-class-project0.s3.amazonaws.com/13_18_12/nonequtriangle/8.png,https://scenegraph-m2s-beth-aryan-class-project0.s3.amazonaws.com/13_18_12/nonequtriangle/7.png,11.0,,0.0-20.0,iter_0,scenegraph-m2s,1,2282,63a07d553b4caa3046c84936,https://scenegraph-m2s-beth-aryan-class-project0.s3.amazonaws.com/13_18_12/nonequtriangle/8.png,63a07b21ee74c867210551b3,184940,20,plugin-m2s-task,60189713dcf864178f74a1ce
3884,63a07e1c8c4fcd3ab5d83ae3,"['https://scenegraph-m2s-beth-aryan-class-project0.s3.amazonaws.com/12_4_11/random/3.png', 'https://scenegraph-m2s-beth-aryan-class-project0.s3.amazonaws.com/4_12_11/random/4.png']",True,0.0,class-project-0,5841-e07fdae6-1491-4ad1-a534-c7c249d48b11,https://scenegraph-m2s-beth-aryan-class-project0.s3.amazonaws.com/4_12_11/random/4.png,https://scenegraph-m2s-beth-aryan-class-project0.s3.amazonaws.com/12_4_11/random/6.png,https://scenegraph-m2s-beth-aryan-class-project0.s3.amazonaws.com/12_4_11/random/3.png,12.0,,0.0-21.0,iter_0,scenegraph-m2s,0,7403,63a07d553b4caa3046c84936,https://scenegraph-m2s-beth-aryan-class-project0.s3.amazonaws.com/12_4_11/random/6.png,63a07b21ee74c867210551b3,193353,21,plugin-m2s-task,60189713dcf864178f74a1ce
3885,63a07e1f8c4fcd3ab5d83ae4,"['https://scenegraph-m2s-beth-aryan-class-project0.s3.amazonaws.com/14_11_7/nonequtriangle/3.png', 'https://scenegraph-m2s-beth-aryan-class-project0.s3.amazonaws.com/13_14_18/nonequtriangle/9.png']",True,1.0,class-project-0,5841-e07fdae6-1491-4ad1-a534-c7c249d48b11,https://scenegraph-m2s-beth-aryan-class-project0.s3.amazonaws.com/14_11_7/nonequtriangle/3.png,https://scenegraph-m2s-beth-aryan-class-project0.s3.amazonaws.com/13_14_18/nonequtriangle/4.png,https://scenegraph-m2s-beth-aryan-class-project0.s3.amazonaws.com/13_14_18/nonequtriangle/9.png,13.0,,0.0-22.0,iter_0,scenegraph-m2s,1,1566,63a07d553b4caa3046c84936,https://scenegraph-m2s-beth-aryan-class-project0.s3.amazonaws.com/13_14_18/nonequtriangle/4.png,63a07b21ee74c867210551b3,195928,22,plugin-m2s-task,60189713dcf864178f74a1ce
3886,63a07e218c4fcd3ab5d83ae5,"['https://scenegraph-m2s-beth-aryan-class-project0.s3.amazonaws.com/14_18_12/nonequtriangle/4.png', 'https://scenegraph-m2s-beth-aryan-class-project0.s3.amazonaws.com/18_14_12/line/8.png']",True,1.0,class-project-0,5841-e07fdae6-1491-4ad1-a534-c7c249d48b11,https://scenegraph-m2s-beth-aryan-class-project0.s3.amazonaws.com/14_18_12/nonequtriangle/4.png,https://scenegraph-m2s-beth-aryan-class-project0.s3.amazonaws.com/18_14_12/line/2.png,https://scenegraph-m2s-beth-aryan-class-project0.s3.amazonaws.com/18_14_12/line/8.png,14.0,,0.0-23.0,iter_0,scenegraph-m2s,1,1950,63a07d553b4caa3046c84936,https://scenegraph-m2s-beth-aryan-class-project0.s3.amazonaws.com/18_14_12/line/2.png,63a07b21ee74c867210551b3,198889,23,plugin-m2s-task,60189713dcf864178f74a1ce
3887,63a07e248c4fcd3ab5d83ae6,"['https://scenegraph-m2s-beth-aryan-class-project0.s3.amazonaws.com/12_4_13/line/4.png', 'https://scenegraph-m2s-beth-aryan-class-project0.s3.amazonaws.com/12_7_13/line/1.png']",True,0.0,class-project-0,5841-e07fdae6-1491-4ad1-a534-c7c249d48b11,https://scenegraph-m2s-beth-aryan-class-project0.s3.amazonaws.com/12_7_13/line/1.png,https://scenegraph-m2s-beth-aryan-class-project0.s3.amazonaws.com/12_4_13/line/7.png,https://scenegraph-m2s-beth-aryan-class-project0.s3.amazonaws.com/12_4_13/line/4.png,15.0,,0.0-24.0,iter_0,scenegraph-m2s,0,1716,63a07d553b4caa3046c84936,https://scenegraph-m2s-beth-aryan-class-project0.s3.amazonaws.com/12_4_13/line/7.png,63a07b21ee74c867210551b3,201617,24,plugin-m2s-task,60189713dcf864178f74a1ce
3888,63a07e278c4fcd3ab5d83ae7,"['https://scenegraph-m2s-beth-aryan-class-project0.s3.amazonaws.com/10_12_14/line/9.png', 'https://scenegraph-m2s-beth-aryan-class-project0.s3.amazonaws.com/10_12_14/nonequtriangle/3.png']",True,0.0,class-project-0,5841-e07fdae6-1491-4ad1-a534-c7c249d48b11,https://scenegraph-m2s-beth-aryan-class-project0.s3.amazonaws.com/10_12_14/nonequtriangle/3.png,https://scenegraph-m2s-beth-aryan-class-project0.s3.amazonaws.com/10_12_14/line/2.png,https://scenegraph-m2s-beth-aryan-class-project0.s3.amazonaws.com/10_12_14/line/9.png,16.0,,0.0-25.0,iter_0,scenegraph-m2s,0,1870,63a07d553b4caa3046c84936,https://scenegraph-m2s-beth-aryan-class-project0.s3.amazonaws.com/10_12_14/line/2.png,63a07b21ee74c867210551b3,204496,25,plugin-m2s-task,60189713dcf864178f74a1ce
3889,63a07e2a8c4fcd3ab5d83ae8,"['https://scenegraph-m2s-beth-aryan-class-project0.s3.amazonaws.com/13_10_11/line/4.png', 'https://scenegraph-m2s-beth-aryan-class-project0.s3.amazonaws.com/4_10_7/line/1.png']",True,0.0,class-project-0,5841-e07fdae6-1491-4ad1-a534-c7c249d48b11,https://scenegraph-m2s-beth-aryan-class-project0.s3.amazonaws.com/4_10_7/line/1.png,https://scenegraph-m2s-beth-aryan-class-project0.s3.amazonaws.com/13_10_11/line/5.png,https://scenegraph-m2s-beth-aryan-class-project0.s3.amazonaws.com/13_10_11/line/4.png,17.0,,0.0-26.0,iter_0,scenegraph-m2s,0,2097,63a07d553b4caa3046c84936,https://scenegraph-m2s-beth-aryan-class-project0.s3.amazonaws.com/13_10_11/line/5.png,63a07b21ee74c867210551b3,207603,26,plugin-m2s-task,60189713dcf864178f74a1ce
3890,63a07e2d8c4fcd3ab5d83ae9,"['https://scenegraph-m2s-beth-aryan-class-project0.s3.amazonaws.com/2_14_10/random/8.png', 'https://scenegraph-m2s-beth-aryan-class-project0.s3.amazonaws.com/4_11_12/line/1.png']",True,1.0,class-project-0,5841-e07fdae6-1491-4ad1-a534-c7c249d48b11,https://scenegraph-m2s-beth-aryan-class-project0.s3.amazonaws.com/2_14_10/random/8.png,https://scenegraph-m2s-beth-aryan-class-project0.s3.amazonaws.com/4_11_12/line/5.png,https://scenegraph-m2s-beth-aryan-class-project0.s3.amazonaws.com/4_11_12/line/1.png,18.0,,0.0-27.0,iter_0,scenegraph-m2s,1,2227,63a07d553b4caa3046c84936,https://scenegraph-m2s-beth-aryan-class-project0.s3.amazonaws.com/4_11_12/line/5.png,63a07b21ee74c867210551b3,210840,27,plugin-m2s-task,60189713dcf864178f74a1ce
3891,63a07e328c4fcd3ab5d83aea,"['https://scenegraph-m2s-beth-aryan-class-project0.s3.amazonaws.com/13_10_4/random/7.png', 'https://scenegraph-m2s-beth-aryan-class-project0.s3.amazonaws.com/13_12_14/line/1.png']",True,1.0,class-project-0,5841-e07fdae6-1491-4ad1-a534-c7c249d48b11,https://scenegraph-m2s-beth-aryan-class-project0.s3.amazonaws.com/13_10_4/random/7.png,https://scenegraph-m2s-beth-aryan-class-project0.s3.amazonaws.com/13_12_14/line/3.png,https://scenegraph-m2s-beth-aryan-class-project0.s3.amazonaws.com/13_12_14/line/1.png,19.0,,0.0-28.0,iter_0,scenegraph-m2s,1,3468,63a07d553b4caa3046c84936,https://scenegraph-m2s-beth-aryan-class-project0.s3.amazonaws.com/13_12_14/line/3.png,63a07b21ee74c867210551b3,215326,28,plugin-m2s-task,60189713dcf864178f74a1ce
3892,63a07e348c4fcd3ab5d83aeb,"['https://scenegraph-m2s-beth-aryan-class-project0.s3.amazonaws.com/10_11_2/nonequtriangle/1.png', 'https://scenegraph-m2s-beth-aryan-class-project0.s3.amazonaws.com/18_2_7/line/5.png']",True,0.0,class-project-0,5841-e07fdae6-1491-4ad1-a534-c7c249d48b11,https://scenegraph-m2s-beth-aryan-class-project0.s3.amazonaws.com/18_2_7/line/5.png,https://scenegraph-m2s-beth-aryan-class-project0.s3.amazonaws.com/10_11_2/nonequtriangle/5.png,https://scenegraph-m2s-beth-aryan-class-project0.s3.amazonaws.com/10_11_2/nonequtriangle/1.png,20.0,,0.0-29.0,iter_0,scenegraph-m2s,0,1183,63a07d553b4caa3046c84936,https://scenegraph-m2s-beth-aryan-class-project0.s3.amazonaws.com/10_11_2/nonequtriangle/5.png,63a07b21ee74c867210551b3,217519,29,plugin-m2s-task,60189713dcf864178f74a1ce
3893,63a07e408c4fcd3ab5d83aec,"['https://scenegraph-m2s-beth-aryan-class-project0.s3.amazonaws.com/2_10_12/random/4.png', 'https://scenegraph-m2s-beth-aryan-class-project0.s3.amazonaws.com/10_12_2/nonequtriangle/3.png']",True,1.0,class-project-0,5841-e07fdae6-1491-4ad1-a534-c7c249d48b11,https://scenegraph-m2s-beth-aryan-class-project0.s3.amazonaws.com/2_10_12/random/4.png,https://scenegraph-m2s-beth-aryan-class-project0.s3.amazonaws.com/10_12_2/nonequtriangle/5.png,https://scenegraph-m2s-beth-aryan-class-project0.s3.amazonaws.com/10_12_2/nonequtriangle/3.png,21.0,,0.0-30.0,iter_0,scenegraph-m2s,1,10383,63a07d553b4caa3046c84936,https://scenegraph-m2s-beth-aryan-class-project0.s3.amazonaws.com/10_12_2/nonequtriangle/5.png,63a07b21ee74c867210551b3,228920,30,plugin-m2s-task,60189713dcf864178f74a1ce
3894,63a07e438c4fcd3ab5d83aed,"['https://scenegraph-m2s-beth-aryan-class-project0.s3.amazonaws.com/11_7_4/random/9.png', 'https://scenegraph-m2s-beth-aryan-class-project0.s3.amazonaws.com/2_11_7/line/2.png']",True,0.0,class-project-0,5841-e07fdae6-1491-4ad1-a534-c7c249d48b11,https://scenegraph-m2s-beth-aryan-class-project0.s3.amazonaws.com/2_11_7/line/2.png,https://scenegraph-m2s-beth-aryan-class-project0.s3.amazonaws.com/11_7_4/random/1.png,https://scenegraph-m2s-beth-aryan-class-project0.s3.amazonaws.com/11_7_4/random/9.png,22.0,,0.0-31.0,iter_0,scenegraph-m2s,0,2562,63a07d553b4caa3046c84936,https://scenegraph-m2s-beth-aryan-class-project0.s3.amazonaws.com/11_7_4/random/1.png,63a07b21ee74c867210551b3,232499,31,plugin-m2s-task,60189713dcf864178f74a1ce
3895,63a07e468c4fcd3ab5d83aee,"['https://scenegraph-m2s-beth-aryan-class-project0.s3.amazonaws.com/2_18_13/line/9.png', 'https://scenegraph-m2s-beth-aryan-class-project0.s3.amazonaws.com/18_2_11/nonequtriangle/1.png']",True,1.0,class-project-0,5841-e07fdae6-1491-4ad1-a534-c7c249d48b11,https://scenegraph-m2s-beth-aryan-class-project0.s3.amazonaws.com/2_18_13/line/9.png,https://scenegraph-m2s-beth-aryan-class-project0.s3.amazonaws.com/18_2_11/nonequtriangle/6.png,https://scenegraph-m2s-beth-aryan-class-project0.s3.amazonaws.com/18_2_11/nonequtriangle/1.png,23.0,,0.0-32.0,iter_0,scenegraph-m2s,1,2239,63a07d553b4caa3046c84936,https://scenegraph-m2s-beth-aryan-class-project0.s3.amazonaws.com/18_2_11/nonequtriangle/6.png,63a07b21ee74c867210551b3,235752,32,plugin-m2s-task,60189713dcf864178f74a1ce
3896,63a07e4d8c4fcd3ab5d83aef,"['https://scenegraph-m2s-beth-aryan-class-project0.s3.amazonaws.com/13_2_5/random/7.png', 'https://scenegraph-m2s-beth-aryan-class-project0.s3.amazonaws.com/13_2_5/nonequtriangle/6.png']",True,1.0,class-project-0,5841-e07fdae6-1491-4ad1-a534-c7c249d48b11,https://scenegraph-m2s-beth-aryan-class-project0.s3.amazonaws.com/13_2_5/random/7.png,https://scenegraph-m2s-beth-aryan-class-project0.s3.amazonaws.com/13_2_5/nonequtriangle/3.png,https://scenegraph-m2s-beth-aryan-class-project0.s3.amazonaws.com/13_2_5/nonequtriangle/6.png,24.0,,0.0-33.0,iter_0,scenegraph-m2s,1,6069,63a07d553b4caa3046c84936,https://scenegraph-m2s-beth-aryan-class-project0.s3.amazonaws.com/13_2_5/nonequtriangle/3.png,63a07b21ee74c867210551b3,242829,33,plugin-m2s-task,60189713dcf864178f74a1ce
3897,63a07e518c4fcd3ab5d83af0,"['https://scenegraph-m2s-beth-aryan-class-project0.s3.amazonaws.com/11_2_13/line/8.png', 'https://scenegraph-m2s-beth-aryan-class-project0.s3.amazonaws.com/2_11_13/nonequtriangle/6.png']",True,1.0,class-project-0,5841-e07fdae6-1491-4ad1-a534-c7c249d48b11,https://scenegraph-m2s-beth-aryan-class-project0.s3.amazonaws.com/11_2_13/line/8.png,https://scenegraph-m2s-beth-aryan-class-project0.s3.amazonaws.com/2_11_13/nonequtriangle/2.png,https://scenegraph-m2s-beth-aryan-class-project0.s3.amazonaws.com/2_11_13/nonequtriangle/6.png,25.0,,0.0-34.0,iter_0,scenegraph-m2s,1,2393,63a07d553b4caa3046c84936,https://scenegraph-m2s-beth-aryan-class-project0.s3.amazonaws.com/2_11_13/nonequtriangle/2.png,63a07b21ee74c867210551b3,246245,34,plugin-m2s-task,60189713dcf864178f74a1ce
3898,63a07e528c4fcd3ab5d83af1,"['https://scenegraph-m2s-beth-aryan-class-project0.s3.amazonaws.com/11_10_13/nonequtriangle/8.png', 'https://scenegraph-m2s-beth-aryan-class-project0.s3.amazonaws.com/2_13_14/nonequtriangle/5.png']",True,0.0,class-project-0,7223-a8d623fd-0919-4097-ad22-811c30afd852,https://scenegraph-m2s-beth-aryan-class-project0.s3.amazonaws.com/2_13_14/nonequtriangle/5.png,https://scenegraph-m2s-beth-aryan-class-project0.s3.amazonaws.com/11_10_13/nonequtriangle/7.png,https://scenegraph-m2s-beth-aryan-class-project0.s3.amazonaws.com/11_10_13/nonequtriangle/8.png,0.0,,0.0-9.0,iter_0,scenegraph-m2s,0,3080,63a07db36f903d60fdbe3214,https://scenegraph-m2s-beth-aryan-class-project0.s3.amazonaws.com/11_10_13/nonequtriangle/7.png,63a07b21ee74c867210551b2,138776,9,plugin-m2s-task,62e99c5ba3484be10c322440
3899,63a07e548c4fcd3ab5d83af2,"['https://scenegraph-m2s-beth-aryan-class-project0.s3.amazonaws.com/4_10_13/line/7.png', 'https://scenegraph-m2s-beth-aryan-class-project0.s3.amazonaws.com/2_11_5/random/1.png']",True,1.0,class-project-0,5841-e07fdae6-1491-4ad1-a534-c7c249d48b11,https://scenegraph-m2s-beth-aryan-class-project0.s3.amazonaws.com/4_10_13/line/7.png,https://scenegraph-m2s-beth-aryan-class-project0.s3.amazonaws.com/2_11_5/random/6.png,https://scenegraph-m2s-beth-aryan-class-project0.s3.amazonaws.com/2_11_5/random/1.png,26.0,,0.0-35.0,iter_0,scenegraph-m2s,1,2559,63a07d553b4caa3046c84936,https://scenegraph-m2s-beth-aryan-class-project0.s3.amazonaws.com/2_11_5/random/6.png,63a07b21ee74c867210551b3,249817,35,plugin-m2s-task,60189713dcf864178f74a1ce
3900,63a07e588c4fcd3ab5d83af3,"['https://scenegraph-m2s-beth-aryan-class-project0.s3.amazonaws.com/5_10_4/line/2.png', 'https://scenegraph-m2s-beth-aryan-class-project0.s3.amazonaws.com/10_7_14/line/2.png']",True,0.0,class-project-0,5841-e07fdae6-1491-4ad1-a534-c7c249d48b11,https://scenegraph-m2s-beth-aryan-class-project0.s3.amazonaws.com/10_7_14/line/2.png,https://scenegraph-m2s-beth-aryan-class-project0.s3.amazonaws.com/5_10_4/line/8.png,https://scenegraph-m2s-beth-aryan-class-project0.s3.amazonaws.com/5_10_4/line/2.png,27.0,,0.0-36.0,iter_0,scenegraph-m2s,0,2123,63a07d553b4caa3046c84936,https://scenegraph-m2s-beth-aryan-class-project0.s3.amazonaws.com/5_10_4/line/8.png,63a07b21ee74c867210551b3,252947,36,plugin-m2s-task,60189713dcf864178f74a1ce
3901,63a07e5b8c4fcd3ab5d83af4,"['https://scenegraph-m2s-beth-aryan-class-project0.s3.amazonaws.com/11_14_5/line/6.png', 'https://scenegraph-m2s-beth-aryan-class-project0.s3.amazonaws.com/10_14_13/line/2.png']",True,1.0,class-project-0,2644-f98abbe8-50e9-4bf1-b6b8-0a92fb415e72,https://scenegraph-m2s-beth-aryan-class-project0.s3.amazonaws.com/11_14_5/line/6.png,https://scenegraph-m2s-beth-aryan-class-project0.s3.amazonaws.com/10_14_13/line/4.png,https://scenegraph-m2s-beth-aryan-class-project0.s3.amazonaws.com/10_14_13/line/2.png,0.0,,0.0-9.0,iter_0,scenegraph-m2s,1,1890,63a07df32e6d92327209d0f0,https://scenegraph-m2s-beth-aryan-class-project0.s3.amazonaws.com/10_14_13/line/4.png,63a07b21ee74c867210551b2,84403,9,plugin-m2s-task,5c745818d60d380001413364
3902,63a07e5b8c4fcd3ab5d83af5,"['https://scenegraph-m2s-beth-aryan-class-project0.s3.amazonaws.com/4_5_13/random/3.png', 'https://scenegraph-m2s-beth-aryan-class-project0.s3.amazonaws.com/4_10_12/random/3.png']",True,1.0,class-project-0,5841-e07fdae6-1491-4ad1-a534-c7c249d48b11,https://scenegraph-m2s-beth-aryan-class-project0.s3.amazonaws.com/4_5_13/random/3.png,https://scenegraph-m2s-beth-aryan-class-project0.s3.amazonaws.com/4_10_12/random/9.png,https://scenegraph-m2s-beth-aryan-class-project0.s3.amazonaws.com/4_10_12/random/3.png,28.0,,0.0-37.0,iter_0,scenegraph-m2s,1,2641,63a07d553b4caa3046c84936,https://scenegraph-m2s-beth-aryan-class-project0.s3.amazonaws.com/4_10_12/random/9.png,63a07b21ee74c867210551b3,256605,37,plugin-m2s-task,60189713dcf864178f74a1ce
3903,63a07e5d8c4fcd3ab5d83af6,"['https://scenegraph-m2s-beth-aryan-class-project0.s3.amazonaws.com/7_11_10/random/5.png', 'https://scenegraph-m2s-beth-aryan-class-project0.s3.amazonaws.com/13_5_14/random/1.png']",True,1.0,class-project-0,2644-f98abbe8-50e9-4bf1-b6b8-0a92fb415e72,https://scenegraph-m2s-beth-aryan-class-project0.s3.amazonaws.com/7_11_10/random/5.png,https://scenegraph-m2s-beth-aryan-class-project0.s3.amazonaws.com/13_5_14/random/2.png,https://scenegraph-m2s-beth-aryan-class-project0.s3.amazonaws.com/13_5_14/random/1.png,1.0,,0.0-10.0,iter_0,scenegraph-m2s,1,1432,63a07df32e6d92327209d0f0,https://scenegraph-m2s-beth-aryan-class-project0.s3.amazonaws.com/13_5_14/random/2.png,63a07b21ee74c867210551b2,86854,10,plugin-m2s-task,5c745818d60d380001413364
3904,63a07e5e8c4fcd3ab5d83af7,"['https://scenegraph-m2s-beth-aryan-class-project0.s3.amazonaws.com/4_18_2/random/4.png', 'https://scenegraph-m2s-beth-aryan-class-project0.s3.amazonaws.com/18_2_4/random/2.png']",True,0.0,class-project-0,7223-a8d623fd-0919-4097-ad22-811c30afd852,https://scenegraph-m2s-beth-aryan-class-project0.s3.amazonaws.com/18_2_4/random/2.png,https://scenegraph-m2s-beth-aryan-class-project0.s3.amazonaws.com/4_18_2/random/9.png,https://scenegraph-m2s-beth-aryan-class-project0.s3.amazonaws.com/4_18_2/random/4.png,1.0,,0.0-10.0,iter_0,scenegraph-m2s,0,11447,63a07db36f903d60fdbe3214,https://scenegraph-m2s-beth-aryan-class-project0.s3.amazonaws.com/4_18_2/random/9.png,63a07b21ee74c867210551b2,151228,10,plugin-m2s-task,62e99c5ba3484be10c322440
3905,63a07e608c4fcd3ab5d83af8,"['https://scenegraph-m2s-beth-aryan-class-project0.s3.amazonaws.com/10_18_5/line/3.png', 'https://scenegraph-m2s-beth-aryan-class-project0.s3.amazonaws.com/5_10_18/nonequtriangle/4.png']",True,0.0,class-project-0,2644-f98abbe8-50e9-4bf1-b6b8-0a92fb415e72,https://scenegraph-m2s-beth-aryan-class-project0.s3.amazonaws.com/5_10_18/nonequtriangle/4.png,https://scenegraph-m2s-beth-aryan-class-project0.s3.amazonaws.com/10_18_5/line/1.png,https://scenegraph-m2s-beth-aryan-class-project0.s3.amazonaws.com/10_18_5/line/3.png,2.0,,0.0-11.0,iter_0,scenegraph-m2s,0,1931,63a07df32e6d92327209d0f0,https://scenegraph-m2s-beth-aryan-class-project0.s3.amazonaws.com/10_18_5/line/1.png,63a07b21ee74c867210551b2,89805,11,plugin-m2s-task,5c745818d60d380001413364
3906,63a07e628c4fcd3ab5d83af9,"['https://scenegraph-m2s-beth-aryan-class-project0.s3.amazonaws.com/11_2_4/random/4.png', 'https://scenegraph-m2s-beth-aryan-class-project0.s3.amazonaws.com/4_2_11/random/4.png']",True,1.0,class-project-0,5841-e07fdae6-1491-4ad1-a534-c7c249d48b11,https://scenegraph-m2s-beth-aryan-class-project0.s3.amazonaws.com/11_2_4/random/4.png,https://scenegraph-m2s-beth-aryan-class-project0.s3.amazonaws.com/4_2_11/random/7.png,https://scenegraph-m2s-beth-aryan-class-project0.s3.amazonaws.com/4_2_11/random/4.png,29.0,,0.0-38.0,iter_0,scenegraph-m2s,1,5367,63a07d553b4caa3046c84936,https://scenegraph-m2s-beth-aryan-class-project0.s3.amazonaws.com/4_2_11/random/7.png,63a07b21ee74c867210551b3,262991,38,plugin-m2s-task,60189713dcf864178f74a1ce
3907,63a07e628c4fcd3ab5d83afa,"['https://scenegraph-m2s-beth-aryan-class-project0.s3.amazonaws.com/2_11_5/random/1.png', 'https://scenegraph-m2s-beth-aryan-class-project0.s3.amazonaws.com/4_10_13/line/7.png']",True,0.0,class-project-0,2644-f98abbe8-50e9-4bf1-b6b8-0a92fb415e72,https://scenegraph-m2s-beth-aryan-class-project0.s3.amazonaws.com/4_10_13/line/7.png,https://scenegraph-m2s-beth-aryan-class-project0.s3.amazonaws.com/2_11_5/random/6.png,https://scenegraph-m2s-beth-aryan-class-project0.s3.amazonaws.com/2_11_5/random/1.png,3.0,,0.0-12.0,iter_0,scenegraph-m2s,0,1178,63a07df32e6d92327209d0f0,https://scenegraph-m2s-beth-aryan-class-project0.s3.amazonaws.com/2_11_5/random/6.png,63a07b21ee74c867210551b2,92001,12,plugin-m2s-task,5c745818d60d380001413364
3908,63a07e638c4fcd3ab5d83afb,"['https://scenegraph-m2s-beth-aryan-class-project0.s3.amazonaws.com/13_10_11/line/4.png', 'https://scenegraph-m2s-beth-aryan-class-project0.s3.amazonaws.com/4_10_7/line/1.png']",True,0.0,class-project-0,7223-a8d623fd-0919-4097-ad22-811c30afd852,https://scenegraph-m2s-beth-aryan-class-project0.s3.amazonaws.com/4_10_7/line/1.png,https://scenegraph-m2s-beth-aryan-class-project0.s3.amazonaws.com/13_10_11/line/5.png,https://scenegraph-m2s-beth-aryan-class-project0.s3.amazonaws.com/13_10_11/line/4.png,2.0,,0.0-11.0,iter_0,scenegraph-m2s,0,3406,63a07db36f903d60fdbe3214,https://scenegraph-m2s-beth-aryan-class-project0.s3.amazonaws.com/13_10_11/line/5.png,63a07b21ee74c867210551b2,155642,11,plugin-m2s-task,62e99c5ba3484be10c322440
3909,63a07e658c4fcd3ab5d83afc,"['https://scenegraph-m2s-beth-aryan-class-project0.s3.amazonaws.com/7_10_18/random/9.png', 'https://scenegraph-m2s-beth-aryan-class-project0.s3.amazonaws.com/2_18_4/line/6.png']",True,1.0,class-project-0,2644-f98abbe8-50e9-4bf1-b6b8-0a92fb415e72,https://scenegraph-m2s-beth-aryan-class-project0.s3.amazonaws.com/7_10_18/random/9.png,https://scenegraph-m2s-beth-aryan-class-project0.s3.amazonaws.com/2_18_4/line/7.png,https://scenegraph-m2s-beth-aryan-class-project0.s3.amazonaws.com/2_18_4/line/6.png,4.0,,0.0-13.0,iter_0,scenegraph-m2s,1,1469,63a07df32e6d92327209d0f0,https://scenegraph-m2s-beth-aryan-class-project0.s3.amazonaws.com/2_18_4/line/7.png,63a07b21ee74c867210551b2,94485,13,plugin-m2s-task,5c745818d60d380001413364
3910,63a07e698c4fcd3ab5d83afd,"['https://scenegraph-m2s-beth-aryan-class-project0.s3.amazonaws.com/7_4_10/nonequtriangle/7.png', 'https://scenegraph-m2s-beth-aryan-class-project0.s3.amazonaws.com/4_7_10/nonequtriangle/7.png']",False,1.0,class-project-0,7223-a8d623fd-0919-4097-ad22-811c30afd852,https://scenegraph-m2s-beth-aryan-class-project0.s3.amazonaws.com/7_4_10/nonequtriangle/7.png,https://scenegraph-m2s-beth-aryan-class-project0.s3.amazonaws.com/4_7_10/nonequtriangle/2.png,https://scenegraph-m2s-beth-aryan-class-project0.s3.amazonaws.com/4_7_10/nonequtriangle/7.png,3.0,,0.0-12.0,iter_0,scenegraph-m2s,0,5582,63a07db36f903d60fdbe3214,https://scenegraph-m2s-beth-aryan-class-project0.s3.amazonaws.com/4_7_10/nonequtriangle/2.png,63a07b21ee74c867210551b2,162237,12,plugin-m2s-task,62e99c5ba3484be10c322440
3911,63a07e6f8c4fcd3ab5d83afe,"['https://scenegraph-m2s-beth-aryan-class-project0.s3.amazonaws.com/12_2_10/random/2.png', 'https://scenegraph-m2s-beth-aryan-class-project0.s3.amazonaws.com/10_12_2/random/9.png']",True,0.0,class-project-0,7223-a8d623fd-0919-4097-ad22-811c30afd852,https://scenegraph-m2s-beth-aryan-class-project0.s3.amazonaws.com/10_12_2/random/9.png,https://scenegraph-m2s-beth-aryan-class-project0.s3.amazonaws.com/12_2_10/random/4.png,https://scenegraph-m2s-beth-aryan-class-project0.s3.amazonaws.com/12_2_10/random/2.png,4.0,,0.0-13.0,iter_0,scenegraph-m2s,0,5230,63a07db36f903d60fdbe3214,https://scenegraph-m2s-beth-aryan-class-project0.s3.amazonaws.com/12_2_10/random/4.png,63a07b21ee74c867210551b2,168478,13,plugin-m2s-task,62e99c5ba3484be10c322440
3912,63a07e708c4fcd3ab5d83aff,"['https://scenegraph-m2s-beth-aryan-class-project0.s3.amazonaws.com/12_4_2/nonequtriangle/2.png', 'https://scenegraph-m2s-beth-aryan-class-project0.s3.amazonaws.com/2_12_4/nonequtriangle/9.png']",True,1.0,class-project-0,2644-f98abbe8-50e9-4bf1-b6b8-0a92fb415e72,https://scenegraph-m2s-beth-aryan-class-project0.s3.amazonaws.com/12_4_2/nonequtriangle/2.png,https://scenegraph-m2s-beth-aryan-class-project0.s3.amazonaws.com/2_12_4/nonequtriangle/1.png,https://scenegraph-m2s-beth-aryan-class-project0.s3.amazonaws.com/2_12_4/nonequtriangle/9.png,5.0,,0.0-14.0,iter_0,scenegraph-m2s,1,10051,63a07df32e6d92327209d0f0,https://scenegraph-m2s-beth-aryan-class-project0.s3.amazonaws.com/2_12_4/nonequtriangle/1.png,63a07b21ee74c867210551b2,105552,14,plugin-m2s-task,5c745818d60d380001413364
3913,63a07e738c4fcd3ab5d83b00,"['https://scenegraph-m2s-beth-aryan-class-project0.s3.amazonaws.com/13_10_14/random/1.png', 'https://scenegraph-m2s-beth-aryan-class-project0.s3.amazonaws.com/18_14_5/random/9.png']",True,0.0,class-project-0,2644-f98abbe8-50e9-4bf1-b6b8-0a92fb415e72,https://scenegraph-m2s-beth-aryan-class-project0.s3.amazonaws.com/18_14_5/random/9.png,https://scenegraph-m2s-beth-aryan-class-project0.s3.amazonaws.com/13_10_14/random/5.png,https://scenegraph-m2s-beth-aryan-class-project0.s3.amazonaws.com/13_10_14/random/1.png,6.0,,0.0-15.0,iter_0,scenegraph-m2s,0,1917,63a07df32e6d92327209d0f0,https://scenegraph-m2s-beth-aryan-class-project0.s3.amazonaws.com/13_10_14/random/5.png,63a07b21ee74c867210551b2,108483,15,plugin-m2s-task,5c745818d60d380001413364
3914,63a07e738c4fcd3ab5d83b01,"['https://scenegraph-m2s-beth-aryan-class-project0.s3.amazonaws.com/5_14_10/line/2.png', 'https://scenegraph-m2s-beth-aryan-class-project0.s3.amazonaws.com/10_14_5/line/7.png']",True,0.0,class-project-0,5841-e07fdae6-1491-4ad1-a534-c7c249d48b11,https://scenegraph-m2s-beth-aryan-class-project0.s3.amazonaws.com/10_14_5/line/7.png,https://scenegraph-m2s-beth-aryan-class-project0.s3.amazonaws.com/5_14_10/line/4.png,https://scenegraph-m2s-beth-aryan-class-project0.s3.amazonaws.com/5_14_10/line/2.png,30.0,,0.0-39.0,iter_0,scenegraph-m2s,0,16213,63a07d553b4caa3046c84936,https://scenegraph-m2s-beth-aryan-class-project0.s3.amazonaws.com/5_14_10/line/4.png,63a07b21ee74c867210551b3,280223,39,plugin-m2s-task,60189713dcf864178f74a1ce
3915,63a07e758c4fcd3ab5d83b02,"['https://scenegraph-m2s-beth-aryan-class-project0.s3.amazonaws.com/11_12_10/nonequtriangle/7.png', 'https://scenegraph-m2s-beth-aryan-class-project0.s3.amazonaws.com/4_13_11/nonequtriangle/3.png']",True,0.0,class-project-0,7223-a8d623fd-0919-4097-ad22-811c30afd852,https://scenegraph-m2s-beth-aryan-class-project0.s3.amazonaws.com/4_13_11/nonequtriangle/3.png,https://scenegraph-m2s-beth-aryan-class-project0.s3.amazonaws.com/11_12_10/nonequtriangle/5.png,https://scenegraph-m2s-beth-aryan-class-project0.s3.amazonaws.com/11_12_10/nonequtriangle/7.png,5.0,,0.0-14.0,iter_0,scenegraph-m2s,0,4922,63a07db36f903d60fdbe3214,https://scenegraph-m2s-beth-aryan-class-project0.s3.amazonaws.com/11_12_10/nonequtriangle/5.png,63a07b21ee74c867210551b2,174413,14,plugin-m2s-task,62e99c5ba3484be10c322440
3916,63a07e788c4fcd3ab5d83b03,"['https://scenegraph-m2s-beth-aryan-class-project0.s3.amazonaws.com/2_14_5/line/2.png', 'https://scenegraph-m2s-beth-aryan-class-project0.s3.amazonaws.com/5_14_2/line/5.png']",True,0.0,class-project-0,2644-f98abbe8-50e9-4bf1-b6b8-0a92fb415e72,https://scenegraph-m2s-beth-aryan-class-project0.s3.amazonaws.com/5_14_2/line/5.png,https://scenegraph-m2s-beth-aryan-class-project0.s3.amazonaws.com/2_14_5/line/6.png,https://scenegraph-m2s-beth-aryan-class-project0.s3.amazonaws.com/2_14_5/line/2.png,7.0,,0.0-16.0,iter_0,scenegraph-m2s,0,4191,63a07df32e6d92327209d0f0,https://scenegraph-m2s-beth-aryan-class-project0.s3.amazonaws.com/2_14_5/line/6.png,63a07b21ee74c867210551b2,113683,16,plugin-m2s-task,5c745818d60d380001413364
3917,63a07e798c4fcd3ab5d83b04,"['https://scenegraph-m2s-beth-aryan-class-project0.s3.amazonaws.com/14_4_7/line/1.png', 'https://scenegraph-m2s-beth-aryan-class-project0.s3.amazonaws.com/4_7_14/random/1.png']",True,0.0,class-project-0,5841-e07fdae6-1491-4ad1-a534-c7c249d48b11,https://scenegraph-m2s-beth-aryan-class-project0.s3.amazonaws.com/4_7_14/random/1.png,https://scenegraph-m2s-beth-aryan-class-project0.s3.amazonaws.com/14_4_7/line/2.png,https://scenegraph-m2s-beth-aryan-class-project0.s3.amazonaws.com/14_4_7/line/1.png,31.0,,0.0-40.0,iter_0,scenegraph-m2s,0,4976,63a07d553b4caa3046c84936,https://scenegraph-m2s-beth-aryan-class-project0.s3.amazonaws.com/14_4_7/line/2.png,63a07b21ee74c867210551b3,286207,40,plugin-m2s-task,60189713dcf864178f74a1ce
3918,63a07e7b8c4fcd3ab5d83b05,"['https://scenegraph-m2s-beth-aryan-class-project0.s3.amazonaws.com/11_10_13/nonequtriangle/8.png', 'https://scenegraph-m2s-beth-aryan-class-project0.s3.amazonaws.com/2_13_14/nonequtriangle/5.png']",True,0.0,class-project-0,5841-e07fdae6-1491-4ad1-a534-c7c249d48b11,https://scenegraph-m2s-beth-aryan-class-project0.s3.amazonaws.com/2_13_14/nonequtriangle/5.png,https://scenegraph-m2s-beth-aryan-class-project0.s3.amazonaws.com/11_10_13/nonequtriangle/7.png,https://scenegraph-m2s-beth-aryan-class-project0.s3.amazonaws.com/11_10_13/nonequtriangle/8.png,32.0,,0.0-41.0,iter_0,scenegraph-m2s,0,1393,63a07d553b4caa3046c84936,https://scenegraph-m2s-beth-aryan-class-project0.s3.amazonaws.com/11_10_13/nonequtriangle/7.png,63a07b21ee74c867210551b3,288620,41,plugin-m2s-task,60189713dcf864178f74a1ce
3919,63a07e7b8c4fcd3ab5d83b06,"['https://scenegraph-m2s-beth-aryan-class-project0.s3.amazonaws.com/12_14_7/line/5.png', 'https://scenegraph-m2s-beth-aryan-class-project0.s3.amazonaws.com/7_14_12/nonequtriangle/7.png']",True,0.0,class-project-0,2644-f98abbe8-50e9-4bf1-b6b8-0a92fb415e72,https://scenegraph-m2s-beth-aryan-class-project0.s3.amazonaws.com/7_14_12/nonequtriangle/7.png,https://scenegraph-m2s-beth-aryan-class-project0.s3.amazonaws.com/12_14_7/line/7.png,https://scenegraph-m2s-beth-aryan-class-project0.s3.amazonaws.com/12_14_7/line/5.png,8.0,,0.0-17.0,iter_0,scenegraph-m2s,0,2313,63a07df32e6d92327209d0f0,https://scenegraph-m2s-beth-aryan-class-project0.s3.amazonaws.com/12_14_7/line/7.png,63a07b21ee74c867210551b2,117004,17,plugin-m2s-task,5c745818d60d380001413364
3920,63a07e7c8c4fcd3ab5d83b07,"['https://scenegraph-m2s-beth-aryan-class-project0.s3.amazonaws.com/10_14_5/line/7.png', 'https://scenegraph-m2s-beth-aryan-class-project0.s3.amazonaws.com/5_14_10/line/2.png']",True,1.0,class-project-0,7223-a8d623fd-0919-4097-ad22-811c30afd852,https://scenegraph-m2s-beth-aryan-class-project0.s3.amazonaws.com/10_14_5/line/7.png,https://scenegraph-m2s-beth-aryan-class-project0.s3.amazonaws.com/5_14_10/line/4.png,https://scenegraph-m2s-beth-aryan-class-project0.s3.amazonaws.com/5_14_10/line/2.png,6.0,,0.0-15.0,iter_0,scenegraph-m2s,1,6106,63a07db36f903d60fdbe3214,https://scenegraph-m2s-beth-aryan-class-project0.s3.amazonaws.com/5_14_10/line/4.png,63a07b21ee74c867210551b2,181526,15,plugin-m2s-task,62e99c5ba3484be10c322440
3921,63a07e7e8c4fcd3ab5d83b08,"['https://scenegraph-m2s-beth-aryan-class-project0.s3.amazonaws.com/10_12_7/line/5.png', 'https://scenegraph-m2s-beth-aryan-class-project0.s3.amazonaws.com/10_12_7/nonequtriangle/8.png']",True,0.0,class-project-0,2644-f98abbe8-50e9-4bf1-b6b8-0a92fb415e72,https://scenegraph-m2s-beth-aryan-class-project0.s3.amazonaws.com/10_12_7/nonequtriangle/8.png,https://scenegraph-m2s-beth-aryan-class-project0.s3.amazonaws.com/10_12_7/line/9.png,https://scenegraph-m2s-beth-aryan-class-project0.s3.amazonaws.com/10_12_7/line/5.png,9.0,,0.0-18.0,iter_0,scenegraph-m2s,0,1622,63a07df32e6d92327209d0f0,https://scenegraph-m2s-beth-aryan-class-project0.s3.amazonaws.com/10_12_7/line/9.png,63a07b21ee74c867210551b2,119633,18,plugin-m2s-task,5c745818d60d380001413364
3922,63a07e838c4fcd3ab5d83b09,"['https://scenegraph-m2s-beth-aryan-class-project0.s3.amazonaws.com/5_14_2/nonequtriangle/5.png', 'https://scenegraph-m2s-beth-aryan-class-project0.s3.amazonaws.com/14_2_5/nonequtriangle/6.png']",True,1.0,class-project-0,7223-a8d623fd-0919-4097-ad22-811c30afd852,https://scenegraph-m2s-beth-aryan-class-project0.s3.amazonaws.com/5_14_2/nonequtriangle/5.png,https://scenegraph-m2s-beth-aryan-class-project0.s3.amazonaws.com/14_2_5/nonequtriangle/4.png,https://scenegraph-m2s-beth-aryan-class-project0.s3.amazonaws.com/14_2_5/nonequtriangle/6.png,7.0,,0.0-16.0,iter_0,scenegraph-m2s,1,5878,63a07db36f903d60fdbe3214,https://scenegraph-m2s-beth-aryan-class-project0.s3.amazonaws.com/14_2_5/nonequtriangle/4.png,63a07b21ee74c867210551b2,188411,16,plugin-m2s-task,62e99c5ba3484be10c322440
3923,63a07e848c4fcd3ab5d83b0a,"['https://scenegraph-m2s-beth-aryan-class-project0.s3.amazonaws.com/10_12_2/nonequtriangle/3.png', 'https://scenegraph-m2s-beth-aryan-class-project0.s3.amazonaws.com/2_10_12/random/4.png']",True,0.0,class-project-0,2644-f98abbe8-50e9-4bf1-b6b8-0a92fb415e72,https://scenegraph-m2s-beth-aryan-class-project0.s3.amazonaws.com/2_10_12/random/4.png,https://scenegraph-m2s-beth-aryan-class-project0.s3.amazonaws.com/10_12_2/nonequtriangle/5.png,https://scenegraph-m2s-beth-aryan-class-project0.s3.amazonaws.com/10_12_2/nonequtriangle/3.png,10.0,,0.0-19.0,iter_0,scenegraph-m2s,0,5312,63a07df32e6d92327209d0f0,https://scenegraph-m2s-beth-aryan-class-project0.s3.amazonaws.com/10_12_2/nonequtriangle/5.png,63a07b21ee74c867210551b2,125968,19,plugin-m2s-task,5c745818d60d380001413364
3924,63a07e888c4fcd3ab5d83b0b,"['https://scenegraph-m2s-beth-aryan-class-project0.s3.amazonaws.com/2_18_13/random/3.png', 'https://scenegraph-m2s-beth-aryan-class-project0.s3.amazonaws.com/11_13_4/random/5.png']",True,0.0,class-project-0,2644-f98abbe8-50e9-4bf1-b6b8-0a92fb415e72,https://scenegraph-m2s-beth-aryan-class-project0.s3.amazonaws.com/11_13_4/random/5.png,https://scenegraph-m2s-beth-aryan-class-project0.s3.amazonaws.com/2_18_13/random/2.png,https://scenegraph-m2s-beth-aryan-class-project0.s3.amazonaws.com/2_18_13/random/3.png,11.0,,0.0-20.0,iter_0,scenegraph-m2s,0,3002,63a07df32e6d92327209d0f0,https://scenegraph-m2s-beth-aryan-class-project0.s3.amazonaws.com/2_18_13/random/2.png,63a07b21ee74c867210551b2,129976,20,plugin-m2s-task,5c745818d60d380001413364
3925,63a07e8c8c4fcd3ab5d83b0c,"['https://scenegraph-m2s-beth-aryan-class-project0.s3.amazonaws.com/4_11_13/line/6.png', 'https://scenegraph-m2s-beth-aryan-class-project0.s3.amazonaws.com/13_2_11/random/3.png']",True,1.0,class-project-0,7223-a8d623fd-0919-4097-ad22-811c30afd852,https://scenegraph-m2s-beth-aryan-class-project0.s3.amazonaws.com/4_11_13/line/6.png,https://scenegraph-m2s-beth-aryan-class-project0.s3.amazonaws.com/13_2_11/random/6.png,https://scenegraph-m2s-beth-aryan-class-project0.s3.amazonaws.com/13_2_11/random/3.png,8.0,,0.0-17.0,iter_0,scenegraph-m2s,1,7406,63a07db36f903d60fdbe3214,https://scenegraph-m2s-beth-aryan-class-project0.s3.amazonaws.com/13_2_11/random/6.png,63a07b21ee74c867210551b2,196822,17,plugin-m2s-task,62e99c5ba3484be10c322440
3926,63a07e8c8c4fcd3ab5d83b0d,"['https://scenegraph-m2s-beth-aryan-class-project0.s3.amazonaws.com/12_4_7/random/9.png', 'https://scenegraph-m2s-beth-aryan-class-project0.s3.amazonaws.com/4_12_7/random/6.png']",True,0.0,class-project-0,5841-e07fdae6-1491-4ad1-a534-c7c249d48b11,https://scenegraph-m2s-beth-aryan-class-project0.s3.amazonaws.com/4_12_7/random/6.png,https://scenegraph-m2s-beth-aryan-class-project0.s3.amazonaws.com/12_4_7/random/6.png,https://scenegraph-m2s-beth-aryan-class-project0.s3.amazonaws.com/12_4_7/random/9.png,33.0,,0.0-42.0,iter_0,scenegraph-m2s,0,15590,63a07d553b4caa3046c84936,https://scenegraph-m2s-beth-aryan-class-project0.s3.amazonaws.com/12_4_7/random/6.png,63a07b21ee74c867210551b3,305229,42,plugin-m2s-task,60189713dcf864178f74a1ce
3927,63a07e8d8c4fcd3ab5d83b0e,"['https://scenegraph-m2s-beth-aryan-class-project0.s3.amazonaws.com/14_4_18/nonequtriangle/5.png', 'https://scenegraph-m2s-beth-aryan-class-project0.s3.amazonaws.com/14_18_4/line/5.png']",True,0.0,class-project-0,2644-f98abbe8-50e9-4bf1-b6b8-0a92fb415e72,https://scenegraph-m2s-beth-aryan-class-project0.s3.amazonaws.com/14_18_4/line/5.png,https://scenegraph-m2s-beth-aryan-class-project0.s3.amazonaws.com/14_4_18/nonequtriangle/9.png,https://scenegraph-m2s-beth-aryan-class-project0.s3.amazonaws.com/14_4_18/nonequtriangle/5.png,12.0,,0.0-21.0,iter_0,scenegraph-m2s,0,3233,63a07df32e6d92327209d0f0,https://scenegraph-m2s-beth-aryan-class-project0.s3.amazonaws.com/14_4_18/nonequtriangle/9.png,63a07b21ee74c867210551b2,134217,21,plugin-m2s-task,5c745818d60d380001413364
3928,63a07e8e8c4fcd3ab5d83b0f,"['https://scenegraph-m2s-beth-aryan-class-project0.s3.amazonaws.com/4_18_11/nonequtriangle/9.png', 'https://scenegraph-m2s-beth-aryan-class-project0.s3.amazonaws.com/18_11_4/nonequtriangle/9.png']",False,0.0,class-project-0,5841-e07fdae6-1491-4ad1-a534-c7c249d48b11,https://scenegraph-m2s-beth-aryan-class-project0.s3.amazonaws.com/18_11_4/nonequtriangle/9.png,https://scenegraph-m2s-beth-aryan-class-project0.s3.amazonaws.com/4_18_11/nonequtriangle/2.png,https://scenegraph-m2s-beth-aryan-class-project0.s3.amazonaws.com/4_18_11/nonequtriangle/9.png,34.0,,0.0-43.0,iter_0,scenegraph-m2s,1,1656,63a07d553b4caa3046c84936,https://scenegraph-m2s-beth-aryan-class-project0.s3.amazonaws.com/4_18_11/nonequtriangle/2.png,63a07b21ee74c867210551b3,307906,43,plugin-m2s-task,60189713dcf864178f74a1ce
3929,63a07e918c4fcd3ab5d83b10,"['https://scenegraph-m2s-beth-aryan-class-project0.s3.amazonaws.com/2_18_13/random/3.png', 'https://scenegraph-m2s-beth-aryan-class-project0.s3.amazonaws.com/11_13_4/random/5.png']",True,0.0,class-project-0,7223-a8d623fd-0919-4097-ad22-811c30afd852,https://scenegraph-m2s-beth-aryan-class-project0.s3.amazonaws.com/11_13_4/random/5.png,https://scenegraph-m2s-beth-aryan-class-project0.s3.amazonaws.com/2_18_13/random/2.png,https://scenegraph-m2s-beth-aryan-class-project0.s3.amazonaws.com/2_18_13/random/3.png,9.0,,0.0-18.0,iter_0,scenegraph-m2s,0,4024,63a07db36f903d60fdbe3214,https://scenegraph-m2s-beth-aryan-class-project0.s3.amazonaws.com/2_18_13/random/2.png,63a07b21ee74c867210551b2,201862,18,plugin-m2s-task,62e99c5ba3484be10c322440
3930,63a07e918c4fcd3ab5d83b11,"['https://scenegraph-m2s-beth-aryan-class-project0.s3.amazonaws.com/4_10_11/random/7.png', 'https://scenegraph-m2s-beth-aryan-class-project0.s3.amazonaws.com/11_4_10/random/3.png']",True,1.0,class-project-0,2644-f98abbe8-50e9-4bf1-b6b8-0a92fb415e72,https://scenegraph-m2s-beth-aryan-class-project0.s3.amazonaws.com/4_10_11/random/7.png,https://scenegraph-m2s-beth-aryan-class-project0.s3.amazonaws.com/11_4_10/random/8.png,https://scenegraph-m2s-beth-aryan-class-project0.s3.amazonaws.com/11_4_10/random/3.png,13.0,,0.0-22.0,iter_0,scenegraph-m2s,1,3651,63a07df32e6d92327209d0f0,https://scenegraph-m2s-beth-aryan-class-project0.s3.amazonaws.com/11_4_10/random/8.png,63a07b21ee74c867210551b2,138878,22,plugin-m2s-task,5c745818d60d380001413364
3931,63a07e968c4fcd3ab5d83b12,"['https://scenegraph-m2s-beth-aryan-class-project0.s3.amazonaws.com/18_7_13/line/5.png', 'https://scenegraph-m2s-beth-aryan-class-project0.s3.amazonaws.com/7_18_13/nonequtriangle/1.png']",True,1.0,class-project-0,5841-e07fdae6-1491-4ad1-a534-c7c249d48b11,https://scenegraph-m2s-beth-aryan-class-project0.s3.amazonaws.com/18_7_13/line/5.png,https://scenegraph-m2s-beth-aryan-class-project0.s3.amazonaws.com/7_18_13/nonequtriangle/6.png,https://scenegraph-m2s-beth-aryan-class-project0.s3.amazonaws.com/7_18_13/nonequtriangle/1.png,35.0,,0.0-44.0,iter_0,scenegraph-m2s,1,6334,63a07d553b4caa3046c84936,https://scenegraph-m2s-beth-aryan-class-project0.s3.amazonaws.com/7_18_13/nonequtriangle/6.png,63a07b21ee74c867210551b3,315247,44,plugin-m2s-task,60189713dcf864178f74a1ce
3932,63a07e968c4fcd3ab5d83b13,"['https://scenegraph-m2s-beth-aryan-class-project0.s3.amazonaws.com/7_14_18/random/7.png', 'https://scenegraph-m2s-beth-aryan-class-project0.s3.amazonaws.com/18_14_7/nonequtriangle/3.png']",True,0.0,class-project-0,2644-f98abbe8-50e9-4bf1-b6b8-0a92fb415e72,https://scenegraph-m2s-beth-aryan-class-project0.s3.amazonaws.com/18_14_7/nonequtriangle/3.png,https://scenegraph-m2s-beth-aryan-class-project0.s3.amazonaws.com/7_14_18/random/9.png,https://scenegraph-m2s-beth-aryan-class-project0.s3.amazonaws.com/7_14_18/random/7.png,14.0,,0.0-23.0,iter_0,scenegraph-m2s,0,3662,63a07df32e6d92327209d0f0,https://scenegraph-m2s-beth-aryan-class-project0.s3.amazonaws.com/7_14_18/random/9.png,63a07b21ee74c867210551b2,143557,23,plugin-m2s-task,5c745818d60d380001413364
3933,63a07e988c4fcd3ab5d83b14,"['https://scenegraph-m2s-beth-aryan-class-project0.s3.amazonaws.com/12_5_14/nonequtriangle/4.png', 'https://scenegraph-m2s-beth-aryan-class-project0.s3.amazonaws.com/2_11_10/random/9.png']",True,1.0,class-project-0,2644-f98abbe8-50e9-4bf1-b6b8-0a92fb415e72,https://scenegraph-m2s-beth-aryan-class-project0.s3.amazonaws.com/12_5_14/nonequtriangle/4.png,https://scenegraph-m2s-beth-aryan-class-project0.s3.amazonaws.com/2_11_10/random/5.png,https://scenegraph-m2s-beth-aryan-class-project0.s3.amazonaws.com/2_11_10/random/9.png,15.0,,0.0-24.0,iter_0,scenegraph-m2s,1,1128,63a07df32e6d92327209d0f0,https://scenegraph-m2s-beth-aryan-class-project0.s3.amazonaws.com/2_11_10/random/5.png,63a07b21ee74c867210551b2,145701,24,plugin-m2s-task,5c745818d60d380001413364
3934,63a07e988c4fcd3ab5d83b15,"['https://scenegraph-m2s-beth-aryan-class-project0.s3.amazonaws.com/10_4_14/nonequtriangle/2.png', 'https://scenegraph-m2s-beth-aryan-class-project0.s3.amazonaws.com/2_7_13/nonequtriangle/4.png']",True,0.0,class-project-0,7223-a8d623fd-0919-4097-ad22-811c30afd852,https://scenegraph-m2s-beth-aryan-class-project0.s3.amazonaws.com/2_7_13/nonequtriangle/4.png,https://scenegraph-m2s-beth-aryan-class-project0.s3.amazonaws.com/10_4_14/nonequtriangle/4.png,https://scenegraph-m2s-beth-aryan-class-project0.s3.amazonaws.com/10_4_14/nonequtriangle/2.png,10.0,,0.0-19.0,iter_0,scenegraph-m2s,0,6668,63a07db36f903d60fdbe3214,https://scenegraph-m2s-beth-aryan-class-project0.s3.amazonaws.com/10_4_14/nonequtriangle/4.png,63a07b21ee74c867210551b2,209544,19,plugin-m2s-task,62e99c5ba3484be10c322440
3935,63a07e9a8c4fcd3ab5d83b16,"['https://scenegraph-m2s-beth-aryan-class-project0.s3.amazonaws.com/14_11_12/random/3.png', 'https://scenegraph-m2s-beth-aryan-class-project0.s3.amazonaws.com/12_11_14/line/8.png']",True,0.0,class-project-0,5841-e07fdae6-1491-4ad1-a534-c7c249d48b11,https://scenegraph-m2s-beth-aryan-class-project0.s3.amazonaws.com/12_11_14/line/8.png,https://scenegraph-m2s-beth-aryan-class-project0.s3.amazonaws.com/14_11_12/random/4.png,https://scenegraph-m2s-beth-aryan-class-project0.s3.amazonaws.com/14_11_12/random/3.png,36.0,,0.0-45.0,iter_0,scenegraph-m2s,0,3398,63a07d553b4caa3046c84936,https://scenegraph-m2s-beth-aryan-class-project0.s3.amazonaws.com/14_11_12/random/4.png,63a07b21ee74c867210551b3,319654,45,plugin-m2s-task,60189713dcf864178f74a1ce
3936,63a07e9b8c4fcd3ab5d83b17,"['https://scenegraph-m2s-beth-aryan-class-project0.s3.amazonaws.com/5_2_13/line/2.png', 'https://scenegraph-m2s-beth-aryan-class-project0.s3.amazonaws.com/2_5_13/line/7.png']",True,1.0,class-project-0,2644-f98abbe8-50e9-4bf1-b6b8-0a92fb415e72,https://scenegraph-m2s-beth-aryan-class-project0.s3.amazonaws.com/5_2_13/line/2.png,https://scenegraph-m2s-beth-aryan-class-project0.s3.amazonaws.com/2_5_13/line/8.png,https://scenegraph-m2s-beth-aryan-class-project0.s3.amazonaws.com/2_5_13/line/7.png,16.0,,0.0-25.0,iter_0,scenegraph-m2s,1,1505,63a07df32e6d92327209d0f0,https://scenegraph-m2s-beth-aryan-class-project0.s3.amazonaws.com/2_5_13/line/8.png,63a07b21ee74c867210551b2,148223,25,plugin-m2s-task,5c745818d60d380001413364
3937,63a07e9d8c4fcd3ab5d83b18,"['https://scenegraph-m2s-beth-aryan-class-project0.s3.amazonaws.com/5_4_12/random/3.png', 'https://scenegraph-m2s-beth-aryan-class-project0.s3.amazonaws.com/13_10_7/nonequtriangle/2.png']",True,1.0,class-project-0,5841-e07fdae6-1491-4ad1-a534-c7c249d48b11,https://scenegraph-m2s-beth-aryan-class-project0.s3.amazonaws.com/5_4_12/random/3.png,https://scenegraph-m2s-beth-aryan-class-project0.s3.amazonaws.com/13_10_7/nonequtriangle/3.png,https://scenegraph-m2s-beth-aryan-class-project0.s3.amazonaws.com/13_10_7/nonequtriangle/2.png,37.0,,0.0-46.0,iter_0,scenegraph-m2s,1,1376,63a07d553b4caa3046c84936,https://scenegraph-m2s-beth-aryan-class-project0.s3.amazonaws.com/13_10_7/nonequtriangle/3.png,63a07b21ee74c867210551b3,322036,46,plugin-m2s-task,60189713dcf864178f74a1ce
3938,63a07e9e8c4fcd3ab5d83b19,"['https://scenegraph-m2s-beth-aryan-class-project0.s3.amazonaws.com/4_11_13/line/6.png', 'https://scenegraph-m2s-beth-aryan-class-project0.s3.amazonaws.com/13_2_11/random/3.png']",True,1.0,class-project-0,2644-f98abbe8-50e9-4bf1-b6b8-0a92fb415e72,https://scenegraph-m2s-beth-aryan-class-project0.s3.amazonaws.com/4_11_13/line/6.png,https://scenegraph-m2s-beth-aryan-class-project0.s3.amazonaws.com/13_2_11/random/6.png,https://scenegraph-m2s-beth-aryan-class-project0.s3.amazonaws.com/13_2_11/random/3.png,17.0,,0.0-26.0,iter_0,scenegraph-m2s,1,2837,63a07df32e6d92327209d0f0,https://scenegraph-m2s-beth-aryan-class-project0.s3.amazonaws.com/13_2_11/random/6.png,63a07b21ee74c867210551b2,152072,26,plugin-m2s-task,5c745818d60d380001413364
3939,63a07e9f8c4fcd3ab5d83b1a,"['https://scenegraph-m2s-beth-aryan-class-project0.s3.amazonaws.com/13_4_18/line/1.png', 'https://scenegraph-m2s-beth-aryan-class-project0.s3.amazonaws.com/13_18_4/line/7.png']",True,0.0,class-project-0,5841-e07fdae6-1491-4ad1-a534-c7c249d48b11,https://scenegraph-m2s-beth-aryan-class-project0.s3.amazonaws.com/13_18_4/line/7.png,https://scenegraph-m2s-beth-aryan-class-project0.s3.amazonaws.com/13_4_18/line/7.png,https://scenegraph-m2s-beth-aryan-class-project0.s3.amazonaws.com/13_4_18/line/1.png,38.0,,0.0-47.0,iter_0,scenegraph-m2s,0,1775,63a07d553b4caa3046c84936,https://scenegraph-m2s-beth-aryan-class-project0.s3.amazonaws.com/13_4_18/line/7.png,63a07b21ee74c867210551b3,324825,47,plugin-m2s-task,60189713dcf864178f74a1ce
3940,63a07ea28c4fcd3ab5d83b1b,"['https://scenegraph-m2s-beth-aryan-class-project0.s3.amazonaws.com/13_10_7/nonequtriangle/2.png', 'https://scenegraph-m2s-beth-aryan-class-project0.s3.amazonaws.com/5_4_12/random/3.png']",True,0.0,class-project-0,2644-f98abbe8-50e9-4bf1-b6b8-0a92fb415e72,https://scenegraph-m2s-beth-aryan-class-project0.s3.amazonaws.com/5_4_12/random/3.png,https://scenegraph-m2s-beth-aryan-class-project0.s3.amazonaws.com/13_10_7/nonequtriangle/3.png,https://scenegraph-m2s-beth-aryan-class-project0.s3.amazonaws.com/13_10_7/nonequtriangle/2.png,18.0,,0.0-27.0,iter_0,scenegraph-m2s,0,2260,63a07df32e6d92327209d0f0,https://scenegraph-m2s-beth-aryan-class-project0.s3.amazonaws.com/13_10_7/nonequtriangle/3.png,63a07b21ee74c867210551b2,155335,27,plugin-m2s-task,5c745818d60d380001413364
3941,63a07ea38c4fcd3ab5d83b1c,"['https://scenegraph-m2s-beth-aryan-class-project0.s3.amazonaws.com/4_2_11/random/4.png', 'https://scenegraph-m2s-beth-aryan-class-project0.s3.amazonaws.com/11_2_4/random/4.png']",False,0.0,class-project-0,7223-a8d623fd-0919-4097-ad22-811c30afd852,https://scenegraph-m2s-beth-aryan-class-project0.s3.amazonaws.com/11_2_4/random/4.png,https://scenegraph-m2s-beth-aryan-class-project0.s3.amazonaws.com/4_2_11/random/7.png,https://scenegraph-m2s-beth-aryan-class-project0.s3.amazonaws.com/4_2_11/random/4.png,11.0,,0.0-20.0,iter_0,scenegraph-m2s,1,9337,63a07db36f903d60fdbe3214,https://scenegraph-m2s-beth-aryan-class-project0.s3.amazonaws.com/4_2_11/random/7.png,63a07b21ee74c867210551b2,219884,20,plugin-m2s-task,62e99c5ba3484be10c322440
3942,63a07ea78c4fcd3ab5d83b1d,"['https://scenegraph-m2s-beth-aryan-class-project0.s3.amazonaws.com/12_7_13/line/1.png', 'https://scenegraph-m2s-beth-aryan-class-project0.s3.amazonaws.com/12_4_13/line/4.png']",True,1.0,class-project-0,2644-f98abbe8-50e9-4bf1-b6b8-0a92fb415e72,https://scenegraph-m2s-beth-aryan-class-project0.s3.amazonaws.com/12_7_13/line/1.png,https://scenegraph-m2s-beth-aryan-class-project0.s3.amazonaws.com/12_4_13/line/7.png,https://scenegraph-m2s-beth-aryan-class-project0.s3.amazonaws.com/12_4_13/line/4.png,19.0,,0.0-28.0,iter_0,scenegraph-m2s,1,3857,63a07df32e6d92327209d0f0,https://scenegraph-m2s-beth-aryan-class-project0.s3.amazonaws.com/12_4_13/line/7.png,63a07b21ee74c867210551b2,160203,28,plugin-m2s-task,5c745818d60d380001413364
3943,63a07ea78c4fcd3ab5d83b1e,"['https://scenegraph-m2s-beth-aryan-class-project0.s3.amazonaws.com/2_7_5/nonequtriangle/9.png', 'https://scenegraph-m2s-beth-aryan-class-project0.s3.amazonaws.com/5_7_10/line/1.png']",True,1.0,class-project-0,7223-a8d623fd-0919-4097-ad22-811c30afd852,https://scenegraph-m2s-beth-aryan-class-project0.s3.amazonaws.com/2_7_5/nonequtriangle/9.png,https://scenegraph-m2s-beth-aryan-class-project0.s3.amazonaws.com/5_7_10/line/3.png,https://scenegraph-m2s-beth-aryan-class-project0.s3.amazonaws.com/5_7_10/line/1.png,12.0,,0.0-21.0,iter_0,scenegraph-m2s,1,3558,63a07db36f903d60fdbe3214,https://scenegraph-m2s-beth-aryan-class-project0.s3.amazonaws.com/5_7_10/line/3.png,63a07b21ee74c867210551b2,224454,21,plugin-m2s-task,62e99c5ba3484be10c322440
3944,63a07ea78c4fcd3ab5d83b1f,"['https://scenegraph-m2s-beth-aryan-class-project0.s3.amazonaws.com/10_11_18/nonequtriangle/1.png', 'https://scenegraph-m2s-beth-aryan-class-project0.s3.amazonaws.com/18_10_11/nonequtriangle/4.png']",True,0.0,class-project-0,5841-e07fdae6-1491-4ad1-a534-c7c249d48b11,https://scenegraph-m2s-beth-aryan-class-project0.s3.amazonaws.com/18_10_11/nonequtriangle/4.png,https://scenegraph-m2s-beth-aryan-class-project0.s3.amazonaws.com/10_11_18/nonequtriangle/9.png,https://scenegraph-m2s-beth-aryan-class-project0.s3.amazonaws.com/10_11_18/nonequtriangle/1.png,39.0,,0.0-48.0,iter_0,scenegraph-m2s,0,6952,63a07d553b4caa3046c84936,https://scenegraph-m2s-beth-aryan-class-project0.s3.amazonaws.com/10_11_18/nonequtriangle/9.png,63a07b21ee74c867210551b3,332789,48,plugin-m2s-task,60189713dcf864178f74a1ce
3945,63a07ea98c4fcd3ab5d83b20,"['https://scenegraph-m2s-beth-aryan-class-project0.s3.amazonaws.com/13_12_2/nonequtriangle/9.png', 'https://scenegraph-m2s-beth-aryan-class-project0.s3.amazonaws.com/13_4_7/nonequtriangle/6.png']",True,1.0,class-project-0,2644-f98abbe8-50e9-4bf1-b6b8-0a92fb415e72,https://scenegraph-m2s-beth-aryan-class-project0.s3.amazonaws.com/13_12_2/nonequtriangle/9.png,https://scenegraph-m2s-beth-aryan-class-project0.s3.amazonaws.com/13_4_7/nonequtriangle/4.png,https://scenegraph-m2s-beth-aryan-class-project0.s3.amazonaws.com/13_4_7/nonequtriangle/6.png,20.0,,0.0-29.0,iter_0,scenegraph-m2s,1,1792,63a07df32e6d92327209d0f0,https://scenegraph-m2s-beth-aryan-class-project0.s3.amazonaws.com/13_4_7/nonequtriangle/4.png,63a07b21ee74c867210551b2,163003,29,plugin-m2s-task,5c745818d60d380001413364
3946,63a07eab8c4fcd3ab5d83b21,"['https://scenegraph-m2s-beth-aryan-class-project0.s3.amazonaws.com/14_7_18/line/4.png', 'https://scenegraph-m2s-beth-aryan-class-project0.s3.amazonaws.com/5_7_4/nonequtriangle/8.png']",True,0.0,class-project-0,5841-e07fdae6-1491-4ad1-a534-c7c249d48b11,https://scenegraph-m2s-beth-aryan-class-project0.s3.amazonaws.com/5_7_4/nonequtriangle/8.png,https://scenegraph-m2s-beth-aryan-class-project0.s3.amazonaws.com/14_7_18/line/2.png,https://scenegraph-m2s-beth-aryan-class-project0.s3.amazonaws.com/14_7_18/line/4.png,40.0,,0.0-49.0,iter_0,scenegraph-m2s,0,2115,63a07d553b4caa3046c84936,https://scenegraph-m2s-beth-aryan-class-project0.s3.amazonaws.com/14_7_18/line/2.png,63a07b21ee74c867210551b3,335920,49,plugin-m2s-task,60189713dcf864178f74a1ce
3947,63a07ead8c4fcd3ab5d83b22,"['https://scenegraph-m2s-beth-aryan-class-project0.s3.amazonaws.com/18_10_11/line/2.png', 'https://scenegraph-m2s-beth-aryan-class-project0.s3.amazonaws.com/11_18_10/random/1.png']",True,1.0,class-project-0,5841-e07fdae6-1491-4ad1-a534-c7c249d48b11,https://scenegraph-m2s-beth-aryan-class-project0.s3.amazonaws.com/18_10_11/line/2.png,https://scenegraph-m2s-beth-aryan-class-project0.s3.amazonaws.com/11_18_10/random/8.png,https://scenegraph-m2s-beth-aryan-class-project0.s3.amazonaws.com/11_18_10/random/1.png,41.0,,0.0-50.0,iter_0,scenegraph-m2s,1,1616,63a07d553b4caa3046c84936,https://scenegraph-m2s-beth-aryan-class-project0.s3.amazonaws.com/11_18_10/random/8.png,63a07b21ee74c867210551b3,338557,50,plugin-m2s-task,60189713dcf864178f74a1ce
3948,63a07eb08c4fcd3ab5d83b23,"['https://scenegraph-m2s-beth-aryan-class-project0.s3.amazonaws.com/5_12_4/nonequtriangle/9.png', 'https://scenegraph-m2s-beth-aryan-class-project0.s3.amazonaws.com/11_14_5/nonequtriangle/4.png']",True,1.0,class-project-0,5841-e07fdae6-1491-4ad1-a534-c7c249d48b11,https://scenegraph-m2s-beth-aryan-class-project0.s3.amazonaws.com/5_12_4/nonequtriangle/9.png,https://scenegraph-m2s-beth-aryan-class-project0.s3.amazonaws.com/11_14_5/nonequtriangle/5.png,https://scenegraph-m2s-beth-aryan-class-project0.s3.amazonaws.com/11_14_5/nonequtriangle/4.png,42.0,,0.0-51.0,iter_0,scenegraph-m2s,1,1786,63a07d553b4caa3046c84936,https://scenegraph-m2s-beth-aryan-class-project0.s3.amazonaws.com/11_14_5/nonequtriangle/5.png,63a07b21ee74c867210551b3,341354,51,plugin-m2s-task,60189713dcf864178f74a1ce
3949,63a07eb18c4fcd3ab5d83b24,"['https://scenegraph-m2s-beth-aryan-class-project0.s3.amazonaws.com/2_10_12/random/4.png', 'https://scenegraph-m2s-beth-aryan-class-project0.s3.amazonaws.com/10_12_2/nonequtriangle/3.png']",False,1.0,class-project-0,7223-a8d623fd-0919-4097-ad22-811c30afd852,https://scenegraph-m2s-beth-aryan-class-project0.s3.amazonaws.com/2_10_12/random/4.png,https://scenegraph-m2s-beth-aryan-class-project0.s3.amazonaws.com/10_12_2/nonequtriangle/5.png,https://scenegraph-m2s-beth-aryan-class-project0.s3.amazonaws.com/10_12_2/nonequtriangle/3.png,13.0,,0.0-22.0,iter_0,scenegraph-m2s,0,8316,63a07db36f903d60fdbe3214,https://scenegraph-m2s-beth-aryan-class-project0.s3.amazonaws.com/10_12_2/nonequtriangle/5.png,63a07b21ee74c867210551b2,233776,22,plugin-m2s-task,62e99c5ba3484be10c322440
3950,63a07eb28c4fcd3ab5d83b25,"['https://scenegraph-m2s-beth-aryan-class-project0.s3.amazonaws.com/7_14_18/random/7.png', 'https://scenegraph-m2s-beth-aryan-class-project0.s3.amazonaws.com/18_14_7/nonequtriangle/3.png']",True,0.0,class-project-0,5841-e07fdae6-1491-4ad1-a534-c7c249d48b11,https://scenegraph-m2s-beth-aryan-class-project0.s3.amazonaws.com/18_14_7/nonequtriangle/3.png,https://scenegraph-m2s-beth-aryan-class-project0.s3.amazonaws.com/7_14_18/random/9.png,https://scenegraph-m2s-beth-aryan-class-project0.s3.amazonaws.com/7_14_18/random/7.png,43.0,,0.0-52.0,iter_0,scenegraph-m2s,0,1369,63a07d553b4caa3046c84936,https://scenegraph-m2s-beth-aryan-class-project0.s3.amazonaws.com/7_14_18/random/9.png,63a07b21ee74c867210551b3,343728,52,plugin-m2s-task,60189713dcf864178f74a1ce
3951,63a07eb38c4fcd3ab5d83b26,"['https://scenegraph-m2s-beth-aryan-class-project0.s3.amazonaws.com/18_10_11/nonequtriangle/4.png', 'https://scenegraph-m2s-beth-aryan-class-project0.s3.amazonaws.com/10_11_18/nonequtriangle/1.png']",True,1.0,class-project-0,2644-f98abbe8-50e9-4bf1-b6b8-0a92fb415e72,https://scenegraph-m2s-beth-aryan-class-project0.s3.amazonaws.com/18_10_11/nonequtriangle/4.png,https://scenegraph-m2s-beth-aryan-class-project0.s3.amazonaws.com/10_11_18/nonequtriangle/9.png,https://scenegraph-m2s-beth-aryan-class-project0.s3.amazonaws.com/10_11_18/nonequtriangle/1.png,21.0,,0.0-30.0,iter_0,scenegraph-m2s,1,8862,63a07df32e6d92327209d0f0,https://scenegraph-m2s-beth-aryan-class-project0.s3.amazonaws.com/10_11_18/nonequtriangle/9.png,63a07b21ee74c867210551b2,172871,30,plugin-m2s-task,5c745818d60d380001413364
3952,63a07eb68c4fcd3ab5d83b27,"['https://scenegraph-m2s-beth-aryan-class-project0.s3.amazonaws.com/12_5_11/nonequtriangle/9.png', 'https://scenegraph-m2s-beth-aryan-class-project0.s3.amazonaws.com/14_5_7/random/5.png']",True,0.0,class-project-0,2644-f98abbe8-50e9-4bf1-b6b8-0a92fb415e72,https://scenegraph-m2s-beth-aryan-class-project0.s3.amazonaws.com/14_5_7/random/5.png,https://scenegraph-m2s-beth-aryan-class-project0.s3.amazonaws.com/12_5_11/nonequtriangle/4.png,https://scenegraph-m2s-beth-aryan-class-project0.s3.amazonaws.com/12_5_11/nonequtriangle/9.png,22.0,,0.0-31.0,iter_0,scenegraph-m2s,0,1523,63a07df32e6d92327209d0f0,https://scenegraph-m2s-beth-aryan-class-project0.s3.amazonaws.com/12_5_11/nonequtriangle/4.png,63a07b21ee74c867210551b2,175411,31,plugin-m2s-task,5c745818d60d380001413364
3953,63a07eb68c4fcd3ab5d83b28,"['https://scenegraph-m2s-beth-aryan-class-project0.s3.amazonaws.com/13_4_18/line/1.png', 'https://scenegraph-m2s-beth-aryan-class-project0.s3.amazonaws.com/13_18_4/line/7.png']",True,0.0,class-project-0,7223-a8d623fd-0919-4097-ad22-811c30afd852,https://scenegraph-m2s-beth-aryan-class-project0.s3.amazonaws.com/13_18_4/line/7.png,https://scenegraph-m2s-beth-aryan-class-project0.s3.amazonaws.com/13_4_18/line/7.png,https://scenegraph-m2s-beth-aryan-class-project0.s3.amazonaws.com/13_4_18/line/1.png,14.0,,0.0-23.0,iter_0,scenegraph-m2s,0,4767,63a07db36f903d60fdbe3214,https://scenegraph-m2s-beth-aryan-class-project0.s3.amazonaws.com/13_4_18/line/7.png,63a07b21ee74c867210551b2,239550,23,plugin-m2s-task,62e99c5ba3484be10c322440
3954,63a07eb78c4fcd3ab5d83b29,"['https://scenegraph-m2s-beth-aryan-class-project0.s3.amazonaws.com/11_4_10/random/3.png', 'https://scenegraph-m2s-beth-aryan-class-project0.s3.amazonaws.com/4_10_11/random/7.png']",True,0.0,class-project-0,5841-e07fdae6-1491-4ad1-a534-c7c249d48b11,https://scenegraph-m2s-beth-aryan-class-project0.s3.amazonaws.com/4_10_11/random/7.png,https://scenegraph-m2s-beth-aryan-class-project0.s3.amazonaws.com/11_4_10/random/8.png,https://scenegraph-m2s-beth-aryan-class-project0.s3.amazonaws.com/11_4_10/random/3.png,44.0,,0.0-53.0,iter_0,scenegraph-m2s,0,3442,63a07d553b4caa3046c84936,https://scenegraph-m2s-beth-aryan-class-project0.s3.amazonaws.com/11_4_10/random/8.png,63a07b21ee74c867210551b3,348180,53,plugin-m2s-task,60189713dcf864178f74a1ce
3955,63a07ebb8c4fcd3ab5d83b2a,"['https://scenegraph-m2s-beth-aryan-class-project0.s3.amazonaws.com/10_12_7/nonequtriangle/8.png', 'https://scenegraph-m2s-beth-aryan-class-project0.s3.amazonaws.com/10_12_7/line/5.png']",True,1.0,class-project-0,5841-e07fdae6-1491-4ad1-a534-c7c249d48b11,https://scenegraph-m2s-beth-aryan-class-project0.s3.amazonaws.com/10_12_7/nonequtriangle/8.png,https://scenegraph-m2s-beth-aryan-class-project0.s3.amazonaws.com/10_12_7/line/9.png,https://scenegraph-m2s-beth-aryan-class-project0.s3.amazonaws.com/10_12_7/line/5.png,45.0,,0.0-54.0,iter_0,scenegraph-m2s,1,3075,63a07d553b4caa3046c84936,https://scenegraph-m2s-beth-aryan-class-project0.s3.amazonaws.com/10_12_7/line/9.png,63a07b21ee74c867210551b3,352262,54,plugin-m2s-task,60189713dcf864178f74a1ce
3956,63a07ebb8c4fcd3ab5d83b2b,"['https://scenegraph-m2s-beth-aryan-class-project0.s3.amazonaws.com/4_12_18/nonequtriangle/4.png', 'https://scenegraph-m2s-beth-aryan-class-project0.s3.amazonaws.com/12_18_4/nonequtriangle/5.png']",True,0.0,class-project-0,2644-f98abbe8-50e9-4bf1-b6b8-0a92fb415e72,https://scenegraph-m2s-beth-aryan-class-project0.s3.amazonaws.com/12_18_4/nonequtriangle/5.png,https://scenegraph-m2s-beth-aryan-class-project0.s3.amazonaws.com/4_12_18/nonequtriangle/3.png,https://scenegraph-m2s-beth-aryan-class-project0.s3.amazonaws.com/4_12_18/nonequtriangle/4.png,23.0,,0.0-32.0,iter_0,scenegraph-m2s,0,4501,63a07df32e6d92327209d0f0,https://scenegraph-m2s-beth-aryan-class-project0.s3.amazonaws.com/4_12_18/nonequtriangle/3.png,63a07b21ee74c867210551b2,180935,32,plugin-m2s-task,5c745818d60d380001413364
3957,63a07ebc8c4fcd3ab5d83b2c,"['https://scenegraph-m2s-beth-aryan-class-project0.s3.amazonaws.com/18_5_4/nonequtriangle/2.png', 'https://scenegraph-m2s-beth-aryan-class-project0.s3.amazonaws.com/13_10_5/line/3.png']",True,0.0,class-project-0,7223-a8d623fd-0919-4097-ad22-811c30afd852,https://scenegraph-m2s-beth-aryan-class-project0.s3.amazonaws.com/13_10_5/line/3.png,https://scenegraph-m2s-beth-aryan-class-project0.s3.amazonaws.com/18_5_4/nonequtriangle/4.png,https://scenegraph-m2s-beth-aryan-class-project0.s3.amazonaws.com/18_5_4/nonequtriangle/2.png,15.0,,0.0-24.0,iter_0,scenegraph-m2s,0,4519,63a07db36f903d60fdbe3214,https://scenegraph-m2s-beth-aryan-class-project0.s3.amazonaws.com/18_5_4/nonequtriangle/4.png,63a07b21ee74c867210551b2,245079,24,plugin-m2s-task,62e99c5ba3484be10c322440
3958,63a07ebf8c4fcd3ab5d83b2d,"['https://scenegraph-m2s-beth-aryan-class-project0.s3.amazonaws.com/2_12_7/line/3.png', 'https://scenegraph-m2s-beth-aryan-class-project0.s3.amazonaws.com/2_7_12/nonequtriangle/8.png']",True,1.0,class-project-0,2644-f98abbe8-50e9-4bf1-b6b8-0a92fb415e72,https://scenegraph-m2s-beth-aryan-class-project0.s3.amazonaws.com/2_12_7/line/3.png,https://scenegraph-m2s-beth-aryan-class-project0.s3.amazonaws.com/2_7_12/nonequtriangle/5.png,https://scenegraph-m2s-beth-aryan-class-project0.s3.amazonaws.com/2_7_12/nonequtriangle/8.png,24.0,,0.0-33.0,iter_0,scenegraph-m2s,1,2982,63a07df32e6d92327209d0f0,https://scenegraph-m2s-beth-aryan-class-project0.s3.amazonaws.com/2_7_12/nonequtriangle/5.png,63a07b21ee74c867210551b2,184923,33,plugin-m2s-task,5c745818d60d380001413364
3959,63a07ec38c4fcd3ab5d83b2e,"['https://scenegraph-m2s-beth-aryan-class-project0.s3.amazonaws.com/12_4_7/random/9.png', 'https://scenegraph-m2s-beth-aryan-class-project0.s3.amazonaws.com/4_12_7/random/6.png']",True,0.0,class-project-0,2644-f98abbe8-50e9-4bf1-b6b8-0a92fb415e72,https://scenegraph-m2s-beth-aryan-class-project0.s3.amazonaws.com/4_12_7/random/6.png,https://scenegraph-m2s-beth-aryan-class-project0.s3.amazonaws.com/12_4_7/random/6.png,https://scenegraph-m2s-beth-aryan-class-project0.s3.amazonaws.com/12_4_7/random/9.png,25.0,,0.0-34.0,iter_0,scenegraph-m2s,0,2946,63a07df32e6d92327209d0f0,https://scenegraph-m2s-beth-aryan-class-project0.s3.amazonaws.com/12_4_7/random/6.png,63a07b21ee74c867210551b2,188885,34,plugin-m2s-task,5c745818d60d380001413364
3960,63a07ec38c4fcd3ab5d83b2f,"['https://scenegraph-m2s-beth-aryan-class-project0.s3.amazonaws.com/18_12_7/random/8.png', 'https://scenegraph-m2s-beth-aryan-class-project0.s3.amazonaws.com/7_18_12/random/7.png']",True,1.0,class-project-0,5841-e07fdae6-1491-4ad1-a534-c7c249d48b11,https://scenegraph-m2s-beth-aryan-class-project0.s3.amazonaws.com/18_12_7/random/8.png,https://scenegraph-m2s-beth-aryan-class-project0.s3.amazonaws.com/7_18_12/random/4.png,https://scenegraph-m2s-beth-aryan-class-project0.s3.amazonaws.com/7_18_12/random/7.png,46.0,,0.0-55.0,iter_0,scenegraph-m2s,1,7477,63a07d553b4caa3046c84936,https://scenegraph-m2s-beth-aryan-class-project0.s3.amazonaws.com/7_18_12/random/4.png,63a07b21ee74c867210551b3,360750,55,plugin-m2s-task,60189713dcf864178f74a1ce
3961,63a07ec68c4fcd3ab5d83b30,"['https://scenegraph-m2s-beth-aryan-class-project0.s3.amazonaws.com/18_4_5/line/4.png', 'https://scenegraph-m2s-beth-aryan-class-project0.s3.amazonaws.com/10_14_18/random/1.png']",True,1.0,class-project-0,2644-f98abbe8-50e9-4bf1-b6b8-0a92fb415e72,https://scenegraph-m2s-beth-aryan-class-project0.s3.amazonaws.com/18_4_5/line/4.png,https://scenegraph-m2s-beth-aryan-class-project0.s3.amazonaws.com/10_14_18/random/3.png,https://scenegraph-m2s-beth-aryan-class-project0.s3.amazonaws.com/10_14_18/random/1.png,26.0,,0.0-35.0,iter_0,scenegraph-m2s,1,2161,63a07df32e6d92327209d0f0,https://scenegraph-m2s-beth-aryan-class-project0.s3.amazonaws.com/10_14_18/random/3.png,63a07b21ee74c867210551b2,192059,35,plugin-m2s-task,5c745818d60d380001413364
3962,63a07ec78c4fcd3ab5d83b31,"['https://scenegraph-m2s-beth-aryan-class-project0.s3.amazonaws.com/13_18_2/nonequtriangle/2.png', 'https://scenegraph-m2s-beth-aryan-class-project0.s3.amazonaws.com/11_13_14/random/4.png']",True,1.0,class-project-0,5841-e07fdae6-1491-4ad1-a534-c7c249d48b11,https://scenegraph-m2s-beth-aryan-class-project0.s3.amazonaws.com/13_18_2/nonequtriangle/2.png,https://scenegraph-m2s-beth-aryan-class-project0.s3.amazonaws.com/11_13_14/random/6.png,https://scenegraph-m2s-beth-aryan-class-project0.s3.amazonaws.com/11_13_14/random/4.png,47.0,,0.0-56.0,iter_0,scenegraph-m2s,1,2667,63a07d553b4caa3046c84936,https://scenegraph-m2s-beth-aryan-class-project0.s3.amazonaws.com/11_13_14/random/6.png,63a07b21ee74c867210551b3,364427,56,plugin-m2s-task,60189713dcf864178f74a1ce
3963,63a07ec98c4fcd3ab5d83b32,"['https://scenegraph-m2s-beth-aryan-class-project0.s3.amazonaws.com/14_7_10/nonequtriangle/1.png', 'https://scenegraph-m2s-beth-aryan-class-project0.s3.amazonaws.com/7_10_14/nonequtriangle/1.png']",True,1.0,class-project-0,7223-a8d623fd-0919-4097-ad22-811c30afd852,https://scenegraph-m2s-beth-aryan-class-project0.s3.amazonaws.com/14_7_10/nonequtriangle/1.png,https://scenegraph-m2s-beth-aryan-class-project0.s3.amazonaws.com/7_10_14/nonequtriangle/5.png,https://scenegraph-m2s-beth-aryan-class-project0.s3.amazonaws.com/7_10_14/nonequtriangle/1.png,16.0,,0.0-25.0,iter_0,scenegraph-m2s,1,11749,63a07db36f903d60fdbe3214,https://scenegraph-m2s-beth-aryan-class-project0.s3.amazonaws.com/7_10_14/nonequtriangle/5.png,63a07b21ee74c867210551b2,257833,25,plugin-m2s-task,62e99c5ba3484be10c322440
3964,63a07ec98c4fcd3ab5d83b33,"['https://scenegraph-m2s-beth-aryan-class-project0.s3.amazonaws.com/7_10_11/line/8.png', 'https://scenegraph-m2s-beth-aryan-class-project0.s3.amazonaws.com/5_12_13/nonequtriangle/9.png']",True,0.0,class-project-0,5841-e07fdae6-1491-4ad1-a534-c7c249d48b11,https://scenegraph-m2s-beth-aryan-class-project0.s3.amazonaws.com/5_12_13/nonequtriangle/9.png,https://scenegraph-m2s-beth-aryan-class-project0.s3.amazonaws.com/7_10_11/line/7.png,https://scenegraph-m2s-beth-aryan-class-project0.s3.amazonaws.com/7_10_11/line/8.png,48.0,,0.0-57.0,iter_0,scenegraph-m2s,0,1261,63a07d553b4caa3046c84936,https://scenegraph-m2s-beth-aryan-class-project0.s3.amazonaws.com/7_10_11/line/7.png,63a07b21ee74c867210551b3,366692,57,plugin-m2s-task,60189713dcf864178f74a1ce
3965,63a07ecd8c4fcd3ab5d83b34,"['https://scenegraph-m2s-beth-aryan-class-project0.s3.amazonaws.com/5_11_4/line/7.png', 'https://scenegraph-m2s-beth-aryan-class-project0.s3.amazonaws.com/5_11_4/nonequtriangle/5.png']",True,1.0,class-project-0,5841-e07fdae6-1491-4ad1-a534-c7c249d48b11,https://scenegraph-m2s-beth-aryan-class-project0.s3.amazonaws.com/5_11_4/line/7.png,https://scenegraph-m2s-beth-aryan-class-project0.s3.amazonaws.com/5_11_4/nonequtriangle/6.png,https://scenegraph-m2s-beth-aryan-class-project0.s3.amazonaws.com/5_11_4/nonequtriangle/5.png,49.0,,0.0-58.0,iter_0,scenegraph-m2s,1,3099,63a07d553b4caa3046c84936,https://scenegraph-m2s-beth-aryan-class-project0.s3.amazonaws.com/5_11_4/nonequtriangle/6.png,63a07b21ee74c867210551b3,370813,58,plugin-m2s-task,60189713dcf864178f74a1ce
3966,63a07ece8c4fcd3ab5d83b35,"['https://scenegraph-m2s-beth-aryan-class-project0.s3.amazonaws.com/14_11_7/nonequtriangle/3.png', 'https://scenegraph-m2s-beth-aryan-class-project0.s3.amazonaws.com/13_14_18/nonequtriangle/9.png']",True,1.0,class-project-0,7223-a8d623fd-0919-4097-ad22-811c30afd852,https://scenegraph-m2s-beth-aryan-class-project0.s3.amazonaws.com/14_11_7/nonequtriangle/3.png,https://scenegraph-m2s-beth-aryan-class-project0.s3.amazonaws.com/13_14_18/nonequtriangle/4.png,https://scenegraph-m2s-beth-aryan-class-project0.s3.amazonaws.com/13_14_18/nonequtriangle/9.png,17.0,,0.0-26.0,iter_0,scenegraph-m2s,1,3945,63a07db36f903d60fdbe3214,https://scenegraph-m2s-beth-aryan-class-project0.s3.amazonaws.com/13_14_18/nonequtriangle/4.png,63a07b21ee74c867210551b2,262793,26,plugin-m2s-task,62e99c5ba3484be10c322440
3967,63a07ed08c4fcd3ab5d83b36,"['https://scenegraph-m2s-beth-aryan-class-project0.s3.amazonaws.com/7_4_10/nonequtriangle/7.png', 'https://scenegraph-m2s-beth-aryan-class-project0.s3.amazonaws.com/4_7_10/nonequtriangle/7.png']",True,1.0,class-project-0,2644-f98abbe8-50e9-4bf1-b6b8-0a92fb415e72,https://scenegraph-m2s-beth-aryan-class-project0.s3.amazonaws.com/7_4_10/nonequtriangle/7.png,https://scenegraph-m2s-beth-aryan-class-project0.s3.amazonaws.com/4_7_10/nonequtriangle/2.png,https://scenegraph-m2s-beth-aryan-class-project0.s3.amazonaws.com/4_7_10/nonequtriangle/7.png,27.0,,0.0-36.0,iter_0,scenegraph-m2s,1,8247,63a07df32e6d92327209d0f0,https://scenegraph-m2s-beth-aryan-class-project0.s3.amazonaws.com/4_7_10/nonequtriangle/2.png,63a07b21ee74c867210551b2,201326,36,plugin-m2s-task,5c745818d60d380001413364
3968,63a07ed08c4fcd3ab5d83b37,"['https://scenegraph-m2s-beth-aryan-class-project0.s3.amazonaws.com/11_14_2/line/8.png', 'https://scenegraph-m2s-beth-aryan-class-project0.s3.amazonaws.com/12_5_13/random/8.png']",True,1.0,class-project-0,5841-e07fdae6-1491-4ad1-a534-c7c249d48b11,https://scenegraph-m2s-beth-aryan-class-project0.s3.amazonaws.com/11_14_2/line/8.png,https://scenegraph-m2s-beth-aryan-class-project0.s3.amazonaws.com/12_5_13/random/6.png,https://scenegraph-m2s-beth-aryan-class-project0.s3.amazonaws.com/12_5_13/random/8.png,50.0,,0.0-59.0,iter_0,scenegraph-m2s,1,1563,63a07d553b4caa3046c84936,https://scenegraph-m2s-beth-aryan-class-project0.s3.amazonaws.com/12_5_13/random/6.png,63a07b21ee74c867210551b3,373387,59,plugin-m2s-task,60189713dcf864178f74a1ce
3969,63a07ed48c4fcd3ab5d83b38,"['https://scenegraph-m2s-beth-aryan-class-project0.s3.amazonaws.com/7_5_14/line/5.png', 'https://scenegraph-m2s-beth-aryan-class-project0.s3.amazonaws.com/14_7_5/line/4.png']",True,1.0,class-project-0,5841-e07fdae6-1491-4ad1-a534-c7c249d48b11,https://scenegraph-m2s-beth-aryan-class-project0.s3.amazonaws.com/7_5_14/line/5.png,https://scenegraph-m2s-beth-aryan-class-project0.s3.amazonaws.com/14_7_5/line/7.png,https://scenegraph-m2s-beth-aryan-class-project0.s3.amazonaws.com/14_7_5/line/4.png,51.0,,0.0-60.0,iter_0,scenegraph-m2s,1,3190,63a07d553b4caa3046c84936,https://scenegraph-m2s-beth-aryan-class-project0.s3.amazonaws.com/14_7_5/line/7.png,63a07b21ee74c867210551b3,377590,60,plugin-m2s-task,60189713dcf864178f74a1ce
3970,63a07ed48c4fcd3ab5d83b39,"['https://scenegraph-m2s-beth-aryan-class-project0.s3.amazonaws.com/12_13_2/random/7.png', 'https://scenegraph-m2s-beth-aryan-class-project0.s3.amazonaws.com/13_2_12/random/9.png']",True,0.0,class-project-0,7223-a8d623fd-0919-4097-ad22-811c30afd852,https://scenegraph-m2s-beth-aryan-class-project0.s3.amazonaws.com/13_2_12/random/9.png,https://scenegraph-m2s-beth-aryan-class-project0.s3.amazonaws.com/12_13_2/random/1.png,https://scenegraph-m2s-beth-aryan-class-project0.s3.amazonaws.com/12_13_2/random/7.png,18.0,,0.0-27.0,iter_0,scenegraph-m2s,0,5732,63a07db36f903d60fdbe3214,https://scenegraph-m2s-beth-aryan-class-project0.s3.amazonaws.com/12_13_2/random/1.png,63a07b21ee74c867210551b2,269545,27,plugin-m2s-task,62e99c5ba3484be10c322440
3971,63a07ed58c4fcd3ab5d83b3a,"['https://scenegraph-m2s-beth-aryan-class-project0.s3.amazonaws.com/2_12_11/random/9.png', 'https://scenegraph-m2s-beth-aryan-class-project0.s3.amazonaws.com/7_11_5/random/6.png']",True,1.0,class-project-0,2644-f98abbe8-50e9-4bf1-b6b8-0a92fb415e72,https://scenegraph-m2s-beth-aryan-class-project0.s3.amazonaws.com/2_12_11/random/9.png,https://scenegraph-m2s-beth-aryan-class-project0.s3.amazonaws.com/7_11_5/random/2.png,https://scenegraph-m2s-beth-aryan-class-project0.s3.amazonaws.com/7_11_5/random/6.png,28.0,,0.0-37.0,iter_0,scenegraph-m2s,1,4292,63a07df32e6d92327209d0f0,https://scenegraph-m2s-beth-aryan-class-project0.s3.amazonaws.com/7_11_5/random/2.png,63a07b21ee74c867210551b2,206630,37,plugin-m2s-task,5c745818d60d380001413364
3972,63a07ed78c4fcd3ab5d83b3b,"['https://scenegraph-m2s-beth-aryan-class-project0.s3.amazonaws.com/12_10_7/random/3.png', 'https://scenegraph-m2s-beth-aryan-class-project0.s3.amazonaws.com/11_5_7/line/8.png']",True,0.0,class-project-0,5841-e07fdae6-1491-4ad1-a534-c7c249d48b11,https://scenegraph-m2s-beth-aryan-class-project0.s3.amazonaws.com/11_5_7/line/8.png,https://scenegraph-m2s-beth-aryan-class-project0.s3.amazonaws.com/12_10_7/random/9.png,https://scenegraph-m2s-beth-aryan-class-project0.s3.amazonaws.com/12_10_7/random/3.png,52.0,,0.0-61.0,iter_0,scenegraph-m2s,0,1780,63a07d553b4caa3046c84936,https://scenegraph-m2s-beth-aryan-class-project0.s3.amazonaws.com/12_10_7/random/9.png,63a07b21ee74c867210551b3,380390,61,plugin-m2s-task,60189713dcf864178f74a1ce
3973,63a07eda8c4fcd3ab5d83b3c,"['https://scenegraph-m2s-beth-aryan-class-project0.s3.amazonaws.com/7_5_18/random/8.png', 'https://scenegraph-m2s-beth-aryan-class-project0.s3.amazonaws.com/18_7_5/nonequtriangle/4.png']",True,0.0,class-project-0,2644-f98abbe8-50e9-4bf1-b6b8-0a92fb415e72,https://scenegraph-m2s-beth-aryan-class-project0.s3.amazonaws.com/18_7_5/nonequtriangle/4.png,https://scenegraph-m2s-beth-aryan-class-project0.s3.amazonaws.com/7_5_18/random/2.png,https://scenegraph-m2s-beth-aryan-class-project0.s3.amazonaws.com/7_5_18/random/8.png,29.0,,0.0-38.0,iter_0,scenegraph-m2s,0,4173,63a07df32e6d92327209d0f0,https://scenegraph-m2s-beth-aryan-class-project0.s3.amazonaws.com/7_5_18/random/2.png,63a07b21ee74c867210551b2,211808,38,plugin-m2s-task,5c745818d60d380001413364
3974,63a07eda8c4fcd3ab5d83b3d,"['https://scenegraph-m2s-beth-aryan-class-project0.s3.amazonaws.com/10_4_11/line/3.png', 'https://scenegraph-m2s-beth-aryan-class-project0.s3.amazonaws.com/5_12_13/line/6.png']",True,0.0,class-project-0,5841-e07fdae6-1491-4ad1-a534-c7c249d48b11,https://scenegraph-m2s-beth-aryan-class-project0.s3.amazonaws.com/5_12_13/line/6.png,https://scenegraph-m2s-beth-aryan-class-project0.s3.amazonaws.com/10_4_11/line/6.png,https://scenegraph-m2s-beth-aryan-class-project0.s3.amazonaws.com/10_4_11/line/3.png,53.0,,0.0-62.0,iter_0,scenegraph-m2s,0,2288,63a07d553b4caa3046c84936,https://scenegraph-m2s-beth-aryan-class-project0.s3.amazonaws.com/10_4_11/line/6.png,63a07b21ee74c867210551b3,383700,62,plugin-m2s-task,60189713dcf864178f74a1ce
3975,63a07edb8c4fcd3ab5d83b3e,"['https://scenegraph-m2s-beth-aryan-class-project0.s3.amazonaws.com/4_10_18/nonequtriangle/3.png', 'https://scenegraph-m2s-beth-aryan-class-project0.s3.amazonaws.com/10_4_18/random/9.png']",True,0.0,class-project-0,7223-a8d623fd-0919-4097-ad22-811c30afd852,https://scenegraph-m2s-beth-aryan-class-project0.s3.amazonaws.com/10_4_18/random/9.png,https://scenegraph-m2s-beth-aryan-class-project0.s3.amazonaws.com/4_10_18/nonequtriangle/1.png,https://scenegraph-m2s-beth-aryan-class-project0.s3.amazonaws.com/4_10_18/nonequtriangle/3.png,19.0,,0.0-28.0,iter_0,scenegraph-m2s,0,5885,63a07db36f903d60fdbe3214,https://scenegraph-m2s-beth-aryan-class-project0.s3.amazonaws.com/4_10_18/nonequtriangle/1.png,63a07b21ee74c867210551b2,276441,28,plugin-m2s-task,62e99c5ba3484be10c322440
3976,63a07edc8c4fcd3ab5d83b3f,"['https://scenegraph-m2s-beth-aryan-class-project0.s3.amazonaws.com/10_11_14/line/4.png', 'https://scenegraph-m2s-beth-aryan-class-project0.s3.amazonaws.com/12_10_4/nonequtriangle/8.png']",True,1.0,class-project-0,2644-f98abbe8-50e9-4bf1-b6b8-0a92fb415e72,https://scenegraph-m2s-beth-aryan-class-project0.s3.amazonaws.com/10_11_14/line/4.png,https://scenegraph-m2s-beth-aryan-class-project0.s3.amazonaws.com/12_10_4/nonequtriangle/4.png,https://scenegraph-m2s-beth-aryan-class-project0.s3.amazonaws.com/12_10_4/nonequtriangle/8.png,30.0,,0.0-39.0,iter_0,scenegraph-m2s,1,1338,63a07df32e6d92327209d0f0,https://scenegraph-m2s-beth-aryan-class-project0.s3.amazonaws.com/12_10_4/nonequtriangle/4.png,63a07b21ee74c867210551b2,214156,39,plugin-m2s-task,5c745818d60d380001413364
3977,63a07edd8c4fcd3ab5d83b40,"['https://scenegraph-m2s-beth-aryan-class-project0.s3.amazonaws.com/5_7_12/random/6.png', 'https://scenegraph-m2s-beth-aryan-class-project0.s3.amazonaws.com/4_13_2/random/4.png']",True,0.0,class-project-0,5841-e07fdae6-1491-4ad1-a534-c7c249d48b11,https://scenegraph-m2s-beth-aryan-class-project0.s3.amazonaws.com/4_13_2/random/4.png,https://scenegraph-m2s-beth-aryan-class-project0.s3.amazonaws.com/5_7_12/random/7.png,https://scenegraph-m2s-beth-aryan-class-project0.s3.amazonaws.com/5_7_12/random/6.png,54.0,,0.0-63.0,iter_0,scenegraph-m2s,0,1766,63a07d553b4caa3046c84936,https://scenegraph-m2s-beth-aryan-class-project0.s3.amazonaws.com/5_7_12/random/7.png,63a07b21ee74c867210551b3,386481,63,plugin-m2s-task,60189713dcf864178f74a1ce
3978,63a07edf8c4fcd3ab5d83b41,"['https://scenegraph-m2s-beth-aryan-class-project0.s3.amazonaws.com/12_2_14/random/8.png', 'https://scenegraph-m2s-beth-aryan-class-project0.s3.amazonaws.com/7_4_11/line/9.png']",True,0.0,class-project-0,2644-f98abbe8-50e9-4bf1-b6b8-0a92fb415e72,https://scenegraph-m2s-beth-aryan-class-project0.s3.amazonaws.com/7_4_11/line/9.png,https://scenegraph-m2s-beth-aryan-class-project0.s3.amazonaws.com/12_2_14/random/6.png,https://scenegraph-m2s-beth-aryan-class-project0.s3.amazonaws.com/12_2_14/random/8.png,31.0,,0.0-40.0,iter_0,scenegraph-m2s,0,1655,63a07df32e6d92327209d0f0,https://scenegraph-m2s-beth-aryan-class-project0.s3.amazonaws.com/12_2_14/random/6.png,63a07b21ee74c867210551b2,216826,40,plugin-m2s-task,5c745818d60d380001413364
3979,63a07ee08c4fcd3ab5d83b42,"['https://scenegraph-m2s-beth-aryan-class-project0.s3.amazonaws.com/2_5_13/line/7.png', 'https://scenegraph-m2s-beth-aryan-class-project0.s3.amazonaws.com/5_2_13/line/2.png']",True,0.0,class-project-0,5841-e07fdae6-1491-4ad1-a534-c7c249d48b11,https://scenegraph-m2s-beth-aryan-class-project0.s3.amazonaws.com/5_2_13/line/2.png,https://scenegraph-m2s-beth-aryan-class-project0.s3.amazonaws.com/2_5_13/line/8.png,https://scenegraph-m2s-beth-aryan-class-project0.s3.amazonaws.com/2_5_13/line/7.png,55.0,,0.0-64.0,iter_0,scenegraph-m2s,0,1468,63a07d553b4caa3046c84936,https://scenegraph-m2s-beth-aryan-class-project0.s3.amazonaws.com/2_5_13/line/8.png,63a07b21ee74c867210551b3,388963,64,plugin-m2s-task,60189713dcf864178f74a1ce
3980,63a07ee08c4fcd3ab5d83b43,"['https://scenegraph-m2s-beth-aryan-class-project0.s3.amazonaws.com/7_4_11/line/9.png', 'https://scenegraph-m2s-beth-aryan-class-project0.s3.amazonaws.com/12_2_14/random/8.png']",True,1.0,class-project-0,7223-a8d623fd-0919-4097-ad22-811c30afd852,https://scenegraph-m2s-beth-aryan-class-project0.s3.amazonaws.com/7_4_11/line/9.png,https://scenegraph-m2s-beth-aryan-class-project0.s3.amazonaws.com/12_2_14/random/6.png,https://scenegraph-m2s-beth-aryan-class-project0.s3.amazonaws.com/12_2_14/random/8.png,20.0,,0.0-29.0,iter_0,scenegraph-m2s,1,3416,63a07db36f903d60fdbe3214,https://scenegraph-m2s-beth-aryan-class-project0.s3.amazonaws.com/12_2_14/random/6.png,63a07b21ee74c867210551b2,280883,29,plugin-m2s-task,62e99c5ba3484be10c322440
3981,63a07ee58c4fcd3ab5d83b44,"['https://scenegraph-m2s-beth-aryan-class-project0.s3.amazonaws.com/18_11_4/nonequtriangle/9.png', 'https://scenegraph-m2s-beth-aryan-class-project0.s3.amazonaws.com/4_18_11/nonequtriangle/9.png']",True,1.0,class-project-0,2644-f98abbe8-50e9-4bf1-b6b8-0a92fb415e72,https://scenegraph-m2s-beth-aryan-class-project0.s3.amazonaws.com/18_11_4/nonequtriangle/9.png,https://scenegraph-m2s-beth-aryan-class-project0.s3.amazonaws.com/4_18_11/nonequtriangle/2.png,https://scenegraph-m2s-beth-aryan-class-project0.s3.amazonaws.com/4_18_11/nonequtriangle/9.png,32.0,,0.0-41.0,iter_0,scenegraph-m2s,1,4389,63a07df32e6d92327209d0f0,https://scenegraph-m2s-beth-aryan-class-project0.s3.amazonaws.com/4_18_11/nonequtriangle/2.png,63a07b21ee74c867210551b2,222236,41,plugin-m2s-task,5c745818d60d380001413364
3982,63a07ee68c4fcd3ab5d83b45,"['https://scenegraph-m2s-beth-aryan-class-project0.s3.amazonaws.com/4_12_11/random/4.png', 'https://scenegraph-m2s-beth-aryan-class-project0.s3.amazonaws.com/12_4_11/random/3.png']",True,1.0,class-project-0,7223-a8d623fd-0919-4097-ad22-811c30afd852,https://scenegraph-m2s-beth-aryan-class-project0.s3.amazonaws.com/4_12_11/random/4.png,https://scenegraph-m2s-beth-aryan-class-project0.s3.amazonaws.com/12_4_11/random/6.png,https://scenegraph-m2s-beth-aryan-class-project0.s3.amazonaws.com/12_4_11/random/3.png,21.0,,0.0-30.0,iter_0,scenegraph-m2s,1,5042,63a07db36f903d60fdbe3214,https://scenegraph-m2s-beth-aryan-class-project0.s3.amazonaws.com/12_4_11/random/6.png,63a07b21ee74c867210551b2,286941,30,plugin-m2s-task,62e99c5ba3484be10c322440
3983,63a07ee78c4fcd3ab5d83b46,"['https://scenegraph-m2s-beth-aryan-class-project0.s3.amazonaws.com/13_2_12/random/9.png', 'https://scenegraph-m2s-beth-aryan-class-project0.s3.amazonaws.com/12_13_2/random/7.png']",True,1.0,class-project-0,5841-e07fdae6-1491-4ad1-a534-c7c249d48b11,https://scenegraph-m2s-beth-aryan-class-project0.s3.amazonaws.com/13_2_12/random/9.png,https://scenegraph-m2s-beth-aryan-class-project0.s3.amazonaws.com/12_13_2/random/1.png,https://scenegraph-m2s-beth-aryan-class-project0.s3.amazonaws.com/12_13_2/random/7.png,56.0,,0.0-65.0,iter_0,scenegraph-m2s,1,6526,63a07d553b4caa3046c84936,https://scenegraph-m2s-beth-aryan-class-project0.s3.amazonaws.com/12_13_2/random/1.png,63a07b21ee74c867210551b3,396507,65,plugin-m2s-task,60189713dcf864178f74a1ce
3984,63a07ee88c4fcd3ab5d83b47,"['https://scenegraph-m2s-beth-aryan-class-project0.s3.amazonaws.com/12_10_7/random/3.png', 'https://scenegraph-m2s-beth-aryan-class-project0.s3.amazonaws.com/11_5_7/line/8.png']",True,0.0,class-project-0,2644-f98abbe8-50e9-4bf1-b6b8-0a92fb415e72,https://scenegraph-m2s-beth-aryan-class-project0.s3.amazonaws.com/11_5_7/line/8.png,https://scenegraph-m2s-beth-aryan-class-project0.s3.amazonaws.com/12_10_7/random/9.png,https://scenegraph-m2s-beth-aryan-class-project0.s3.amazonaws.com/12_10_7/random/3.png,33.0,,0.0-42.0,iter_0,scenegraph-m2s,0,2053,63a07df32e6d92327209d0f0,https://scenegraph-m2s-beth-aryan-class-project0.s3.amazonaws.com/12_10_7/random/9.png,63a07b21ee74c867210551b2,225308,42,plugin-m2s-task,5c745818d60d380001413364
3985,63a07ee98c4fcd3ab5d83b48,"['https://scenegraph-m2s-beth-aryan-class-project0.s3.amazonaws.com/7_13_2/random/9.png', 'https://scenegraph-m2s-beth-aryan-class-project0.s3.amazonaws.com/12_18_10/random/6.png']",True,0.0,class-project-0,5841-e07fdae6-1491-4ad1-a534-c7c249d48b11,https://scenegraph-m2s-beth-aryan-class-project0.s3.amazonaws.com/12_18_10/random/6.png,https://scenegraph-m2s-beth-aryan-class-project0.s3.amazonaws.com/7_13_2/random/4.png,https://scenegraph-m2s-beth-aryan-class-project0.s3.amazonaws.com/7_13_2/random/9.png,57.0,,0.0-66.0,iter_0,scenegraph-m2s,0,1378,63a07d553b4caa3046c84936,https://scenegraph-m2s-beth-aryan-class-project0.s3.amazonaws.com/7_13_2/random/4.png,63a07b21ee74c867210551b3,398889,66,plugin-m2s-task,60189713dcf864178f74a1ce
3986,63a07eea8c4fcd3ab5d83b49,"['https://scenegraph-m2s-beth-aryan-class-project0.s3.amazonaws.com/4_11_2/line/2.png', 'https://scenegraph-m2s-beth-aryan-class-project0.s3.amazonaws.com/14_18_5/nonequtriangle/3.png']",True,0.0,class-project-0,2644-f98abbe8-50e9-4bf1-b6b8-0a92fb415e72,https://scenegraph-m2s-beth-aryan-class-project0.s3.amazonaws.com/14_18_5/nonequtriangle/3.png,https://scenegraph-m2s-beth-aryan-class-project0.s3.amazonaws.com/4_11_2/line/6.png,https://scenegraph-m2s-beth-aryan-class-project0.s3.amazonaws.com/4_11_2/line/2.png,34.0,,0.0-43.0,iter_0,scenegraph-m2s,0,1229,63a07df32e6d92327209d0f0,https://scenegraph-m2s-beth-aryan-class-project0.s3.amazonaws.com/4_11_2/line/6.png,63a07b21ee74c867210551b2,227544,43,plugin-m2s-task,5c745818d60d380001413364
3987,63a07eec8c4fcd3ab5d83b4a,"['https://scenegraph-m2s-beth-aryan-class-project0.s3.amazonaws.com/18_7_5/nonequtriangle/4.png', 'https://scenegraph-m2s-beth-aryan-class-project0.s3.amazonaws.com/7_5_18/random/8.png']",True,1.0,class-project-0,7223-a8d623fd-0919-4097-ad22-811c30afd852,https://scenegraph-m2s-beth-aryan-class-project0.s3.amazonaws.com/18_7_5/nonequtriangle/4.png,https://scenegraph-m2s-beth-aryan-class-project0.s3.amazonaws.com/7_5_18/random/2.png,https://scenegraph-m2s-beth-aryan-class-project0.s3.amazonaws.com/7_5_18/random/8.png,22.0,,0.0-31.0,iter_0,scenegraph-m2s,1,4963,63a07db36f903d60fdbe3214,https://scenegraph-m2s-beth-aryan-class-project0.s3.amazonaws.com/7_5_18/random/2.png,63a07b21ee74c867210551b2,292925,31,plugin-m2s-task,62e99c5ba3484be10c322440
3988,63a07eec8c4fcd3ab5d83b4b,"['https://scenegraph-m2s-beth-aryan-class-project0.s3.amazonaws.com/12_18_11/random/1.png', 'https://scenegraph-m2s-beth-aryan-class-project0.s3.amazonaws.com/14_7_2/random/9.png']",True,1.0,class-project-0,2644-f98abbe8-50e9-4bf1-b6b8-0a92fb415e72,https://scenegraph-m2s-beth-aryan-class-project0.s3.amazonaws.com/12_18_11/random/1.png,https://scenegraph-m2s-beth-aryan-class-project0.s3.amazonaws.com/14_7_2/random/2.png,https://scenegraph-m2s-beth-aryan-class-project0.s3.amazonaws.com/14_7_2/random/9.png,35.0,,0.0-44.0,iter_0,scenegraph-m2s,1,1553,63a07df32e6d92327209d0f0,https://scenegraph-m2s-beth-aryan-class-project0.s3.amazonaws.com/14_7_2/random/2.png,63a07b21ee74c867210551b2,230114,44,plugin-m2s-task,5c745818d60d380001413364
3989,63a07eee8c4fcd3ab5d83b4c,"['https://scenegraph-m2s-beth-aryan-class-project0.s3.amazonaws.com/14_4_13/random/9.png', 'https://scenegraph-m2s-beth-aryan-class-project0.s3.amazonaws.com/4_13_14/line/9.png']",True,0.0,class-project-0,5841-e07fdae6-1491-4ad1-a534-c7c249d48b11,https://scenegraph-m2s-beth-aryan-class-project0.s3.amazonaws.com/4_13_14/line/9.png,https://scenegraph-m2s-beth-aryan-class-project0.s3.amazonaws.com/14_4_13/random/5.png,https://scenegraph-m2s-beth-aryan-class-project0.s3.amazonaws.com/14_4_13/random/9.png,58.0,,0.0-67.0,iter_0,scenegraph-m2s,0,3036,63a07d553b4caa3046c84936,https://scenegraph-m2s-beth-aryan-class-project0.s3.amazonaws.com/14_4_13/random/5.png,63a07b21ee74c867210551b3,402946,67,plugin-m2s-task,60189713dcf864178f74a1ce
3990,63a07ef08c4fcd3ab5d83b4d,"['https://scenegraph-m2s-beth-aryan-class-project0.s3.amazonaws.com/4_5_14/nonequtriangle/3.png', 'https://scenegraph-m2s-beth-aryan-class-project0.s3.amazonaws.com/7_12_13/nonequtriangle/7.png']",True,1.0,class-project-0,5841-e07fdae6-1491-4ad1-a534-c7c249d48b11,https://scenegraph-m2s-beth-aryan-class-project0.s3.amazonaws.com/4_5_14/nonequtriangle/3.png,https://scenegraph-m2s-beth-aryan-class-project0.s3.amazonaws.com/7_12_13/nonequtriangle/8.png,https://scenegraph-m2s-beth-aryan-class-project0.s3.amazonaws.com/7_12_13/nonequtriangle/7.png,59.0,,0.0-68.0,iter_0,scenegraph-m2s,1,1816,63a07d553b4caa3046c84936,https://scenegraph-m2s-beth-aryan-class-project0.s3.amazonaws.com/7_12_13/nonequtriangle/8.png,63a07b21ee74c867210551b3,405778,68,plugin-m2s-task,60189713dcf864178f74a1ce
3991,63a07ef18c4fcd3ab5d83b4e,"['https://scenegraph-m2s-beth-aryan-class-project0.s3.amazonaws.com/4_7_18/nonequtriangle/6.png', 'https://scenegraph-m2s-beth-aryan-class-project0.s3.amazonaws.com/7_4_18/line/1.png']",True,1.0,class-project-0,7223-a8d623fd-0919-4097-ad22-811c30afd852,https://scenegraph-m2s-beth-aryan-class-project0.s3.amazonaws.com/4_7_18/nonequtriangle/6.png,https://scenegraph-m2s-beth-aryan-class-project0.s3.amazonaws.com/7_4_18/line/7.png,https://scenegraph-m2s-beth-aryan-class-project0.s3.amazonaws.com/7_4_18/line/1.png,23.0,,0.0-32.0,iter_0,scenegraph-m2s,1,4374,63a07db36f903d60fdbe3214,https://scenegraph-m2s-beth-aryan-class-project0.s3.amazonaws.com/7_4_18/line/7.png,63a07b21ee74c867210551b2,298317,32,plugin-m2s-task,62e99c5ba3484be10c322440
3992,63a07ef18c4fcd3ab5d83b4f,"['https://scenegraph-m2s-beth-aryan-class-project0.s3.amazonaws.com/18_12_7/random/8.png', 'https://scenegraph-m2s-beth-aryan-class-project0.s3.amazonaws.com/7_18_12/random/7.png']",True,1.0,class-project-0,2644-f98abbe8-50e9-4bf1-b6b8-0a92fb415e72,https://scenegraph-m2s-beth-aryan-class-project0.s3.amazonaws.com/18_12_7/random/8.png,https://scenegraph-m2s-beth-aryan-class-project0.s3.amazonaws.com/7_18_12/random/4.png,https://scenegraph-m2s-beth-aryan-class-project0.s3.amazonaws.com/7_18_12/random/7.png,36.0,,0.0-45.0,iter_0,scenegraph-m2s,1,3828,63a07df32e6d92327209d0f0,https://scenegraph-m2s-beth-aryan-class-project0.s3.amazonaws.com/7_18_12/random/4.png,63a07b21ee74c867210551b2,234950,45,plugin-m2s-task,5c745818d60d380001413364
3993,63a07ef48c4fcd3ab5d83b50,"['https://scenegraph-m2s-beth-aryan-class-project0.s3.amazonaws.com/11_7_13/random/7.png', 'https://scenegraph-m2s-beth-aryan-class-project0.s3.amazonaws.com/2_7_10/random/8.png']",True,1.0,class-project-0,2644-f98abbe8-50e9-4bf1-b6b8-0a92fb415e72,https://scenegraph-m2s-beth-aryan-class-project0.s3.amazonaws.com/11_7_13/random/7.png,https://scenegraph-m2s-beth-aryan-class-project0.s3.amazonaws.com/2_7_10/random/9.png,https://scenegraph-m2s-beth-aryan-class-project0.s3.amazonaws.com/2_7_10/random/8.png,37.0,,0.0-46.0,iter_0,scenegraph-m2s,1,1480,63a07df32e6d92327209d0f0,https://scenegraph-m2s-beth-aryan-class-project0.s3.amazonaws.com/2_7_10/random/9.png,63a07b21ee74c867210551b2,237434,46,plugin-m2s-task,5c745818d60d380001413364
3994,63a07ef68c4fcd3ab5d83b51,"['https://scenegraph-m2s-beth-aryan-class-project0.s3.amazonaws.com/10_2_18/random/6.png', 'https://scenegraph-m2s-beth-aryan-class-project0.s3.amazonaws.com/12_18_5/random/3.png']",True,0.0,class-project-0,2644-f98abbe8-50e9-4bf1-b6b8-0a92fb415e72,https://scenegraph-m2s-beth-aryan-class-project0.s3.amazonaws.com/12_18_5/random/3.png,https://scenegraph-m2s-beth-aryan-class-project0.s3.amazonaws.com/10_2_18/random/3.png,https://scenegraph-m2s-beth-aryan-class-project0.s3.amazonaws.com/10_2_18/random/6.png,38.0,,0.0-47.0,iter_0,scenegraph-m2s,0,1349,63a07df32e6d92327209d0f0,https://scenegraph-m2s-beth-aryan-class-project0.s3.amazonaws.com/10_2_18/random/3.png,63a07b21ee74c867210551b2,239802,47,plugin-m2s-task,5c745818d60d380001413364
3995,63a07ef68c4fcd3ab5d83b52,"['https://scenegraph-m2s-beth-aryan-class-project0.s3.amazonaws.com/12_5_14/nonequtriangle/4.png', 'https://scenegraph-m2s-beth-aryan-class-project0.s3.amazonaws.com/2_11_10/random/9.png']",True,1.0,class-project-0,5841-e07fdae6-1491-4ad1-a534-c7c249d48b11,https://scenegraph-m2s-beth-aryan-class-project0.s3.amazonaws.com/12_5_14/nonequtriangle/4.png,https://scenegraph-m2s-beth-aryan-class-project0.s3.amazonaws.com/2_11_10/random/5.png,https://scenegraph-m2s-beth-aryan-class-project0.s3.amazonaws.com/2_11_10/random/9.png,60.0,,0.0-70.0,iter_0,scenegraph-m2s,1,1839,63a07d553b4caa3046c84936,https://scenegraph-m2s-beth-aryan-class-project0.s3.amazonaws.com/2_11_10/random/5.png,63a07b21ee74c867210551b3,411697,70,plugin-m2s-task,60189713dcf864178f74a1ce
3996,63a07ef78c4fcd3ab5d83b53,"['https://scenegraph-m2s-beth-aryan-class-project0.s3.amazonaws.com/18_4_11/random/1.png', 'https://scenegraph-m2s-beth-aryan-class-project0.s3.amazonaws.com/4_13_12/random/2.png']",True,1.0,class-project-0,7223-a8d623fd-0919-4097-ad22-811c30afd852,https://scenegraph-m2s-beth-aryan-class-project0.s3.amazonaws.com/18_4_11/random/1.png,https://scenegraph-m2s-beth-aryan-class-project0.s3.amazonaws.com/4_13_12/random/4.png,https://scenegraph-m2s-beth-aryan-class-project0.s3.amazonaws.com/4_13_12/random/2.png,24.0,,0.0-33.0,iter_0,scenegraph-m2s,1,5135,63a07db36f903d60fdbe3214,https://scenegraph-m2s-beth-aryan-class-project0.s3.amazonaws.com/4_13_12/random/4.png,63a07b21ee74c867210551b2,304464,33,plugin-m2s-task,62e99c5ba3484be10c322440
3997,63a07ef88c4fcd3ab5d83b54,"['https://scenegraph-m2s-beth-aryan-class-project0.s3.amazonaws.com/13_12_2/nonequtriangle/9.png', 'https://scenegraph-m2s-beth-aryan-class-project0.s3.amazonaws.com/13_4_7/nonequtriangle/6.png']",True,1.0,class-project-0,5841-e07fdae6-1491-4ad1-a534-c7c249d48b11,https://scenegraph-m2s-beth-aryan-class-project0.s3.amazonaws.com/13_12_2/nonequtriangle/9.png,https://scenegraph-m2s-beth-aryan-class-project0.s3.amazonaws.com/13_4_7/nonequtriangle/4.png,https://scenegraph-m2s-beth-aryan-class-project0.s3.amazonaws.com/13_4_7/nonequtriangle/6.png,61.0,,0.0-71.0,iter_0,scenegraph-m2s,1,1136,63a07d553b4caa3046c84936,https://scenegraph-m2s-beth-aryan-class-project0.s3.amazonaws.com/13_4_7/nonequtriangle/4.png,63a07b21ee74c867210551b3,413839,71,plugin-m2s-task,60189713dcf864178f74a1ce
3998,63a07efa8c4fcd3ab5d83b55,"['https://scenegraph-m2s-beth-aryan-class-project0.s3.amazonaws.com/18_10_11/line/2.png', 'https://scenegraph-m2s-beth-aryan-class-project0.s3.amazonaws.com/11_18_10/random/1.png']",True,1.0,class-project-0,2644-f98abbe8-50e9-4bf1-b6b8-0a92fb415e72,https://scenegraph-m2s-beth-aryan-class-project0.s3.amazonaws.com/18_10_11/line/2.png,https://scenegraph-m2s-beth-aryan-class-project0.s3.amazonaws.com/11_18_10/random/8.png,https://scenegraph-m2s-beth-aryan-class-project0.s3.amazonaws.com/11_18_10/random/1.png,39.0,,0.0-48.0,iter_0,scenegraph-m2s,1,2713,63a07df32e6d92327209d0f0,https://scenegraph-m2s-beth-aryan-class-project0.s3.amazonaws.com/11_18_10/random/8.png,63a07b21ee74c867210551b2,243526,48,plugin-m2s-task,5c745818d60d380001413364
